"rt","key_press","immOpt","delOpt","delay","task","randomize","trial_type","trial_index","time_elapsed","internal_node_id","choice","timelineType","startdate","starttime","subject_id"
"484.59999999403954","80","-8.47","-10.00","180","loss","1","html-keyboard-response","22","27381","0.0-4.0-0.0-1.0-0.0","immediate","trial","24/05/2022","17:24:11","o8abhhcn7"
"364.09999999403954","80","-3.85","-5.00","30","loss","1","html-keyboard-response","25","29755","0.0-4.0-0.0-1.0-0.1","immediate","trial","24/05/2022","17:24:11","o8abhhcn7"
"1281.2999999821186","80","-0.01","-5.00","1095","loss","1","html-keyboard-response","28","33041","0.0-4.0-0.0-1.0-0.2","immediate","trial","24/05/2022","17:24:11","o8abhhcn7"
"519.5999999940395","80","-0.42","-5.00","1095","loss","1","html-keyboard-response","31","35565","0.0-4.0-0.0-1.0-0.3","immediate","trial","24/05/2022","17:24:11","o8abhhcn7"
"325.09999999403954","80","-4.98","-5.00","365","loss","1","html-keyboard-response","34","37899","0.0-4.0-0.0-1.0-0.4","immediate","trial","24/05/2022","17:24:11","o8abhhcn7"
"421.09999999403954","80","-2.15","-10.00","365","loss","0","html-keyboard-response","37","40328","0.0-4.0-0.0-1.0-0.5","delayed","trial","24/05/2022","17:24:11","o8abhhcn7"
"354.69999998807907","80","-4.99","-5.00","90","loss","1","html-keyboard-response","40","42691","0.0-4.0-0.0-1.0-0.6","immediate","trial","24/05/2022","17:24:11","o8abhhcn7"
"328.2999999821186","80","-0.08","-50.00","1095","loss","1","html-keyboard-response","43","45028","0.0-4.0-0.0-1.0-0.7","immediate","trial","24/05/2022","17:24:11","o8abhhcn7"
"312.2999999821186","80","-7.69","-10.00","30","loss","0","html-keyboard-response","46","47347","0.0-4.0-0.0-1.0-0.8","delayed","trial","24/05/2022","17:24:11","o8abhhcn7"
"420.2999999821186","80","-49.91","-50.00","180","loss","0","html-keyboard-response","49","49778","0.0-4.0-0.0-1.0-0.9","delayed","trial","24/05/2022","17:24:11","o8abhhcn7"
"818.1999999880791","80","-0.46","-50.00","180","loss","0","html-keyboard-response","52","52606","0.0-4.0-0.0-1.0-0.10","delayed","trial","24/05/2022","17:24:11","o8abhhcn7"
"495.90000000596046","80","-19.93","-20.00","365","loss","0","html-keyboard-response","55","55110","0.0-4.0-0.0-1.0-0.11","delayed","trial","24/05/2022","17:24:11","o8abhhcn7"
"711.5","80","-19.99","-20.00","30","loss","0","html-keyboard-response","58","57825","0.0-4.0-0.0-1.0-0.12","delayed","trial","24/05/2022","17:24:11","o8abhhcn7"
"385","80","-23.87","-50.00","1095","loss","0","html-keyboard-response","61","60215","0.0-4.0-0.0-1.0-0.13","delayed","trial","24/05/2022","17:24:11","o8abhhcn7"
"725.3000000119209","80","-9.17","-10.00","90","loss","1","html-keyboard-response","64","62950","0.0-4.0-0.0-1.0-0.14","immediate","trial","24/05/2022","17:24:11","o8abhhcn7"
"349.30000001192093","80","-16.95","-20.00","180","loss","1","html-keyboard-response","67","65305","0.0-4.0-0.0-1.0-0.15","immediate","trial","24/05/2022","17:24:11","o8abhhcn7"
"330.69999998807907","80","-5.26","-10.00","90","loss","0","html-keyboard-response","70","67644","0.0-4.0-0.0-1.0-0.16","delayed","trial","24/05/2022","17:24:11","o8abhhcn7"
"525.5","80","-42.37","-50.00","180","loss","1","html-keyboard-response","73","70175","0.0-4.0-0.0-1.0-0.17","immediate","trial","24/05/2022","17:24:11","o8abhhcn7"
"257.5","80","-4.95","-5.00","1095","loss","1","html-keyboard-response","76","72442","0.0-4.0-0.0-1.0-0.18","immediate","trial","24/05/2022","17:24:11","o8abhhcn7"
"416.80000001192093","80","-9.89","-10.00","1095","loss","1","html-keyboard-response","79","74866","0.0-4.0-0.0-1.0-0.19","immediate","trial","24/05/2022","17:24:11","o8abhhcn7"
"303","80","-4.18","-50.00","1095","loss","1","html-keyboard-response","82","77174","0.0-4.0-0.0-1.0-0.20","immediate","trial","24/05/2022","17:24:11","o8abhhcn7"
"779.5","80","-1.67","-20.00","1095","loss","1","html-keyboard-response","85","79959","0.0-4.0-0.0-1.0-0.21","immediate","trial","24/05/2022","17:24:11","o8abhhcn7"
"964.8999999761581","80","-2.63","-50.00","30","loss","1","html-keyboard-response","88","82929","0.0-4.0-0.0-1.0-0.22","immediate","trial","24/05/2022","17:24:11","o8abhhcn7"
"326.90000000596046","80","-49.96","-50.00","90","loss","1","html-keyboard-response","91","85261","0.0-4.0-0.0-1.0-0.23","immediate","trial","24/05/2022","17:24:11","o8abhhcn7"
"290.30000001192093","80","-0.91","-50.00","90","loss","0","html-keyboard-response","94","87562","0.0-4.0-0.0-1.0-0.24","delayed","trial","24/05/2022","17:24:11","o8abhhcn7"
"348.09999999403954","80","-3.66","-5.00","365","loss","1","html-keyboard-response","97","89919","0.0-4.0-0.0-1.0-0.25","immediate","trial","24/05/2022","17:24:11","o8abhhcn7"
"420.2999999821186","80","-9.99","-10.00","30","loss","0","html-keyboard-response","100","92346","0.0-4.0-0.0-1.0-0.26","delayed","trial","24/05/2022","17:24:11","o8abhhcn7"
"464.69999998807907","80","-0.02","-5.00","365","loss","0","html-keyboard-response","103","94823","0.0-4.0-0.0-1.0-0.27","delayed","trial","24/05/2022","17:24:11","o8abhhcn7"
"414.7999999821186","80","-7.14","-20.00","180","loss","0","html-keyboard-response","106","97243","0.0-4.0-0.0-1.0-0.28","delayed","trial","24/05/2022","17:24:11","o8abhhcn7"
"403.19999998807907","80","-26.32","-50.00","90","loss","0","html-keyboard-response","109","99652","0.0-4.0-0.0-1.0-0.29","delayed","trial","24/05/2022","17:24:11","o8abhhcn7"
"446","80","-49.82","-50.00","365","loss","0","html-keyboard-response","112","102105","0.0-4.0-0.0-1.0-0.30","delayed","trial","24/05/2022","17:24:11","o8abhhcn7"
"513.3000000119209","80","-19.98","-20.00","90","loss","0","html-keyboard-response","115","104626","0.0-4.0-0.0-1.0-0.31","delayed","trial","24/05/2022","17:24:11","o8abhhcn7"
"307.90000000596046","80","-0.84","-10.00","1095","loss","0","html-keyboard-response","118","106938","0.0-4.0-0.0-1.0-0.32","delayed","trial","24/05/2022","17:24:11","o8abhhcn7"
"230.2000000178814","80","-48.54","-50.00","30","loss","0","html-keyboard-response","121","109180","0.0-4.0-0.0-1.0-0.33","delayed","trial","24/05/2022","17:24:11","o8abhhcn7"
"341.90000000596046","80","-4.99","-5.00","180","loss","1","html-keyboard-response","124","111528","0.0-4.0-0.0-1.0-0.34","immediate","trial","24/05/2022","17:24:11","o8abhhcn7"
"338.69999998807907","80","-4.77","-10.00","1095","loss","0","html-keyboard-response","127","113876","0.0-4.0-0.0-1.0-0.35","delayed","trial","24/05/2022","17:24:11","o8abhhcn7"
"321.40000000596046","80","-2.63","-5.00","90","loss","0","html-keyboard-response","130","116208","0.0-4.0-0.0-1.0-0.36","delayed","trial","24/05/2022","17:24:11","o8abhhcn7"
"346.5","80","-0.05","-5.00","180","loss","1","html-keyboard-response","133","118561","0.0-4.0-0.0-1.0-0.37","immediate","trial","24/05/2022","17:24:11","o8abhhcn7"
"394.80000001192093","80","-3.57","-10.00","180","loss","1","html-keyboard-response","136","120965","0.0-4.0-0.0-1.0-0.38","immediate","trial","24/05/2022","17:24:11","o8abhhcn7"
"356.80000001192093","80","-7.33","-10.00","365","loss","0","html-keyboard-response","139","123329","0.0-4.0-0.0-1.0-0.39","delayed","trial","24/05/2022","17:24:11","o8abhhcn7"
"469.09999999403954","80","0.05","5.00","180","reward","0","html-keyboard-response","143","126146","0.0-4.0-1.0-1.0-0.0","delayed","trial","24/05/2022","17:24:11","o8abhhcn7"
"728.4000000059605","80","46.73","50.00","7","reward","1","html-keyboard-response","146","128882","0.0-4.0-1.0-1.0-0.1","immediate","trial","24/05/2022","17:24:11","o8abhhcn7"
"1448.5999999940395","80","7.14","20.00","180","reward","0","html-keyboard-response","149","132340","0.0-4.0-1.0-1.0-0.2","delayed","trial","24/05/2022","17:24:11","o8abhhcn7"
"508.69999998807907","80","1.08","5.00","365","reward","0","html-keyboard-response","152","134859","0.0-4.0-1.0-1.0-0.3","delayed","trial","24/05/2022","17:24:11","o8abhhcn7"
"545.3999999761581","80","14.65","20.00","365","reward","1","html-keyboard-response","155","137411","0.0-4.0-1.0-1.0-0.4","immediate","trial","24/05/2022","17:24:11","o8abhhcn7"
"1643.2999999821186","80","9.71","10.00","30","reward","0","html-keyboard-response","158","141064","0.0-4.0-1.0-1.0-0.5","delayed","trial","24/05/2022","17:24:11","o8abhhcn7"
"425","80","19.99","20.00","7","reward","1","html-keyboard-response","161","143498","0.0-4.0-1.0-1.0-0.6","immediate","trial","24/05/2022","17:24:11","o8abhhcn7"
"305.40000000596046","80","48.54","50.00","30","reward","1","html-keyboard-response","164","145814","0.0-4.0-1.0-1.0-0.7","immediate","trial","24/05/2022","17:24:11","o8abhhcn7"
"551.7999999821186","80","5.26","10.00","90","reward","1","html-keyboard-response","167","148376","0.0-4.0-1.0-1.0-0.8","immediate","trial","24/05/2022","17:24:11","o8abhhcn7"
"368.69999998807907","80","9.99","10.00","30","reward","1","html-keyboard-response","170","150750","0.0-4.0-1.0-1.0-0.9","immediate","trial","24/05/2022","17:24:11","o8abhhcn7"
"368.2000000178814","80","4.99","5.00","90","reward","1","html-keyboard-response","173","153127","0.0-4.0-1.0-1.0-0.10","immediate","trial","24/05/2022","17:24:11","o8abhhcn7"
"326.80000001192093","80","18.69","20.00","7","reward","1","html-keyboard-response","176","155460","0.0-4.0-1.0-1.0-0.11","immediate","trial","24/05/2022","17:24:11","o8abhhcn7"
"403.89999997615814","80","19.99","20.00","30","reward","1","html-keyboard-response","179","157873","0.0-4.0-1.0-1.0-0.12","immediate","trial","24/05/2022","17:24:11","o8abhhcn7"
"333.5","80","3.85","20.00","7","reward","0","html-keyboard-response","182","160213","0.0-4.0-1.0-1.0-0.13","delayed","trial","24/05/2022","17:24:11","o8abhhcn7"
"517","80","2.15","10.00","365","reward","1","html-keyboard-response","185","162739","0.0-4.0-1.0-1.0-0.14","immediate","trial","24/05/2022","17:24:11","o8abhhcn7"
"313.40000000596046","80","4.99","5.00","180","reward","1","html-keyboard-response","188","165062","0.0-4.0-1.0-1.0-0.15","immediate","trial","24/05/2022","17:24:11","o8abhhcn7"
"898.2999999821186","80","1.92","10.00","7","reward","1","html-keyboard-response","191","167968","0.0-4.0-1.0-1.0-0.16","immediate","trial","24/05/2022","17:24:11","o8abhhcn7"
"350.2999999821186","80","0.23","50.00","365","reward","1","html-keyboard-response","194","170327","0.0-4.0-1.0-1.0-0.17","immediate","trial","24/05/2022","17:24:11","o8abhhcn7"
"582","80","4.30","20.00","365","reward","0","html-keyboard-response","197","172915","0.0-4.0-1.0-1.0-0.18","delayed","trial","24/05/2022","17:24:11","o8abhhcn7"
"404.59999999403954","80","10.75","50.00","365","reward","1","html-keyboard-response","200","175329","0.0-4.0-1.0-1.0-0.19","immediate","trial","24/05/2022","17:24:11","o8abhhcn7"
"303.40000000596046","80","15.38","20.00","30","reward","1","html-keyboard-response","203","177639","0.0-4.0-1.0-1.0-0.20","immediate","trial","24/05/2022","17:24:11","o8abhhcn7"
"840.5","80","0.18","20.00","180","reward","1","html-keyboard-response","206","180486","0.0-4.0-1.0-1.0-0.21","immediate","trial","24/05/2022","17:24:11","o8abhhcn7"
"679.4000000059605","80","4.99","5.00","30","reward","1","html-keyboard-response","209","183170","0.0-4.0-1.0-1.0-0.22","immediate","trial","24/05/2022","17:24:11","o8abhhcn7"
"251.09999999403954","80","0.09","20.00","365","reward","1","html-keyboard-response","212","185429","0.0-4.0-1.0-1.0-0.23","immediate","trial","24/05/2022","17:24:11","o8abhhcn7"
"323.59999999403954","80","1.79","5.00","180","reward","1","html-keyboard-response","215","187761","0.0-4.0-1.0-1.0-0.24","immediate","trial","24/05/2022","17:24:11","o8abhhcn7"
"543.8000000119209","80","19.98","20.00","90","reward","0","html-keyboard-response","218","190314","0.0-4.0-1.0-1.0-0.25","delayed","trial","24/05/2022","17:24:11","o8abhhcn7"
"1154.7000000178814","80","0.05","10.00","365","reward","1","html-keyboard-response","221","193481","0.0-4.0-1.0-1.0-0.26","immediate","trial","24/05/2022","17:24:11","o8abhhcn7"
"319.09999999403954","80","4.98","5.00","365","reward","0","html-keyboard-response","224","195809","0.0-4.0-1.0-1.0-0.27","delayed","trial","24/05/2022","17:24:11","o8abhhcn7"
"564.1000000238419","80","0.02","5.00","365","reward","1","html-keyboard-response","227","198381","0.0-4.0-1.0-1.0-0.28","immediate","trial","24/05/2022","17:24:11","o8abhhcn7"
"435.59999999403954","80","9.96","10.00","365","reward","1","html-keyboard-response","230","200828","0.0-4.0-1.0-1.0-0.29","immediate","trial","24/05/2022","17:24:11","o8abhhcn7"
"403.89999997615814","80","4.59","5.00","90","reward","0","html-keyboard-response","233","203239","0.0-4.0-1.0-1.0-0.30","delayed","trial","24/05/2022","17:24:11","o8abhhcn7"
"397.59999999403954","80","49.99","50.00","30","reward","1","html-keyboard-response","236","205643","0.0-4.0-1.0-1.0-0.31","immediate","trial","24/05/2022","17:24:11","o8abhhcn7"
"453.59999999403954","80","0.26","5.00","30","reward","0","html-keyboard-response","239","208107","0.0-4.0-1.0-1.0-0.32","delayed","trial","24/05/2022","17:24:11","o8abhhcn7"
"464.69999998807907","80","4.99","5.00","7","reward","1","html-keyboard-response","242","210579","0.0-4.0-1.0-1.0-0.33","immediate","trial","24/05/2022","17:24:11","o8abhhcn7"
"468.7999999821186","80","9.62","50.00","7","reward","1","html-keyboard-response","245","213053","0.0-4.0-1.0-1.0-0.34","immediate","trial","24/05/2022","17:24:11","o8abhhcn7"
"447.40000000596046","81","3.57","10.00","180","reward","0","html-keyboard-response","248","215512","0.0-4.0-1.0-1.0-0.35","immediate","trial","24/05/2022","17:24:11","o8abhhcn7"
"328","80","7.33","10.00","365","reward","0","html-keyboard-response","251","217848","0.0-4.0-1.0-1.0-0.36","delayed","trial","24/05/2022","17:24:11","o8abhhcn7"
"439.40000000596046","81","2.63","5.00","90","reward","1","html-keyboard-response","254","220296","0.0-4.0-1.0-1.0-0.37","delayed","trial","24/05/2022","17:24:11","o8abhhcn7"
"306.60000002384186","80","38.46","50.00","30","reward","0","html-keyboard-response","257","222609","0.0-4.0-1.0-1.0-0.38","delayed","trial","24/05/2022","17:24:11","o8abhhcn7"
"702","81","0.36","20.00","90","reward","0","html-keyboard-response","260","225315","0.0-4.0-1.0-1.0-0.39","immediate","trial","24/05/2022","17:24:11","o8abhhcn7"
"584.9000000059605","80","-0.09","-10.00","180","loss","0","html-keyboard-response","264","228630","0.0-4.0-2.0-1.0-0.0","delayed","trial","24/05/2022","17:24:11","o8abhhcn7"
"305","81","-49.46","-50.00","1095","loss","0","html-keyboard-response","267","230938","0.0-4.0-2.0-1.0-0.1","immediate","trial","24/05/2022","17:24:11","o8abhhcn7"
"321.59999999403954","80","-0.09","-5.00","90","loss","1","html-keyboard-response","270","233269","0.0-4.0-2.0-1.0-0.2","immediate","trial","24/05/2022","17:24:11","o8abhhcn7"
"388.59999999403954","81","-2.39","-5.00","1095","loss","1","html-keyboard-response","273","235661","0.0-4.0-2.0-1.0-0.3","delayed","trial","24/05/2022","17:24:11","o8abhhcn7"
"522.7000000178814","80","-0.36","-20.00","90","loss","0","html-keyboard-response","276","238193","0.0-4.0-2.0-1.0-0.4","delayed","trial","24/05/2022","17:24:11","o8abhhcn7"
"309.09999999403954","81","-9.99","-10.00","90","loss","0","html-keyboard-response","279","240513","0.0-4.0-2.0-1.0-0.5","immediate","trial","24/05/2022","17:24:11","o8abhhcn7"
"373.09999999403954","80","-19.96","-20.00","180","loss","0","html-keyboard-response","282","242896","0.0-4.0-2.0-1.0-0.6","delayed","trial","24/05/2022","17:24:11","o8abhhcn7"
"264.5","80","-0.53","-10.00","30","loss","0","html-keyboard-response","285","245169","0.0-4.0-2.0-1.0-0.7","delayed","trial","24/05/2022","17:24:11","o8abhhcn7"
"392.5","80","-0.02","-10.00","1095","loss","0","html-keyboard-response","288","247571","0.0-4.0-2.0-1.0-0.8","delayed","trial","24/05/2022","17:24:11","o8abhhcn7"
"200.69999998807907","80","-36.63","-50.00","365","loss","0","html-keyboard-response","291","249779","0.0-4.0-2.0-1.0-0.9","delayed","trial","24/05/2022","17:24:11","o8abhhcn7"
"602.0999999940395","81","-4.24","-5.00","180","loss","1","html-keyboard-response","294","252393","0.0-4.0-2.0-1.0-0.10","delayed","trial","24/05/2022","17:24:11","o8abhhcn7"
"1415.199999988079","80","-17.86","-50.00","180","loss","1","html-keyboard-response","297","255814","0.0-4.0-2.0-1.0-0.11","immediate","trial","24/05/2022","17:24:11","o8abhhcn7"
"444.19999998807907","80","-0.09","-20.00","365","loss","1","html-keyboard-response","300","258267","0.0-4.0-2.0-1.0-0.12","immediate","trial","24/05/2022","17:24:11","o8abhhcn7"
"391.09999999403954","80","-1.05","-20.00","30","loss","1","html-keyboard-response","303","260665","0.0-4.0-2.0-1.0-0.13","immediate","trial","24/05/2022","17:24:11","o8abhhcn7"
"397.59999999403954","80","-4.59","-5.00","90","loss","1","html-keyboard-response","306","263073","0.0-4.0-2.0-1.0-0.14","immediate","trial","24/05/2022","17:24:11","o8abhhcn7"
"382.5","80","-18.35","-20.00","90","loss","0","html-keyboard-response","309","265464","0.0-4.0-2.0-1.0-0.15","delayed","trial","24/05/2022","17:24:11","o8abhhcn7"
"325.5","80","-9.96","-10.00","365","loss","0","html-keyboard-response","312","267796","0.0-4.0-2.0-1.0-0.16","delayed","trial","24/05/2022","17:24:11","o8abhhcn7"
"367.90000000596046","80","-19.78","-20.00","1095","loss","1","html-keyboard-response","315","270170","0.0-4.0-2.0-1.0-0.17","immediate","trial","24/05/2022","17:24:11","o8abhhcn7"
"329","80","-0.23","-50.00","365","loss","1","html-keyboard-response","318","272509","0.0-4.0-2.0-1.0-0.18","immediate","trial","24/05/2022","17:24:11","o8abhhcn7"
"478.5","80","-1.79","-5.00","180","loss","0","html-keyboard-response","321","274997","0.0-4.0-2.0-1.0-0.19","delayed","trial","24/05/2022","17:24:11","o8abhhcn7"
"376.5","80","-0.26","-5.00","30","loss","0","html-keyboard-response","324","277383","0.0-4.0-2.0-1.0-0.20","delayed","trial","24/05/2022","17:24:11","o8abhhcn7"
"414.69999998807907","80","-10.75","-50.00","365","loss","0","html-keyboard-response","327","279807","0.0-4.0-2.0-1.0-0.21","delayed","trial","24/05/2022","17:24:11","o8abhhcn7"
"448.69999998807907","81","-49.99","-50.00","30","loss","0","html-keyboard-response","330","282261","0.0-4.0-2.0-1.0-0.22","immediate","trial","24/05/2022","17:24:11","o8abhhcn7"
"551.4000000059605","80","-14.65","-20.00","365","loss","1","html-keyboard-response","333","284818","0.0-4.0-2.0-1.0-0.23","immediate","trial","24/05/2022","17:24:11","o8abhhcn7"
"348","81","-0.03","-20.00","1095","loss","1","html-keyboard-response","336","287174","0.0-4.0-2.0-1.0-0.24","delayed","trial","24/05/2022","17:24:11","o8abhhcn7"
"367.40000000596046","81","-9.71","-10.00","30","loss","1","html-keyboard-response","339","289551","0.0-4.0-2.0-1.0-0.25","delayed","trial","24/05/2022","17:24:11","o8abhhcn7"
"403.2999999821186","80","-4.30","-20.00","365","loss","0","html-keyboard-response","342","291960","0.0-4.0-2.0-1.0-0.26","delayed","trial","24/05/2022","17:24:11","o8abhhcn7"
"728.0999999940395","80","-4.99","-5.00","30","loss","1","html-keyboard-response","345","294697","0.0-4.0-2.0-1.0-0.27","immediate","trial","24/05/2022","17:24:11","o8abhhcn7"
"437.09999999403954","81","-19.42","-20.00","30","loss","0","html-keyboard-response","348","297141","0.0-4.0-2.0-1.0-0.28","immediate","trial","24/05/2022","17:24:11","o8abhhcn7"
"862.8000000119209","80","-10.53","-20.00","90","loss","0","html-keyboard-response","351","300009","0.0-4.0-2.0-1.0-0.29","delayed","trial","24/05/2022","17:24:11","o8abhhcn7"
"337.69999998807907","81","-0.18","-10.00","90","loss","0","html-keyboard-response","354","302353","0.0-4.0-2.0-1.0-0.30","immediate","trial","24/05/2022","17:24:11","o8abhhcn7"
"781.6999999880791","80","-0.05","-10.00","365","loss","0","html-keyboard-response","357","305144","0.0-4.0-2.0-1.0-0.31","delayed","trial","24/05/2022","17:24:11","o8abhhcn7"
"751.3000000119209","81","-45.87","-50.00","90","loss","0","html-keyboard-response","360","307905","0.0-4.0-2.0-1.0-0.32","immediate","trial","24/05/2022","17:24:11","o8abhhcn7"
"353.5","80","-9.55","-20.00","1095","loss","1","html-keyboard-response","363","310267","0.0-4.0-2.0-1.0-0.33","immediate","trial","24/05/2022","17:24:11","o8abhhcn7"
"208.40000000596046","81","-38.46","-50.00","30","loss","0","html-keyboard-response","366","312484","0.0-4.0-2.0-1.0-0.34","immediate","trial","24/05/2022","17:24:11","o8abhhcn7"
"318.39999997615814","80","-4.85","-5.00","30","loss","1","html-keyboard-response","369","314811","0.0-4.0-2.0-1.0-0.35","immediate","trial","24/05/2022","17:24:11","o8abhhcn7"
"928.8999999761581","81","-9.98","-10.00","180","loss","0","html-keyboard-response","372","317750","0.0-4.0-2.0-1.0-0.36","immediate","trial","24/05/2022","17:24:11","o8abhhcn7"
"471","80","-0.18","-20.00","180","loss","0","html-keyboard-response","375","320226","0.0-4.0-2.0-1.0-0.37","delayed","trial","24/05/2022","17:24:11","o8abhhcn7"
"777.0999999940395","80","-1.08","-5.00","365","loss","0","html-keyboard-response","378","323011","0.0-4.0-2.0-1.0-0.38","delayed","trial","24/05/2022","17:24:11","o8abhhcn7"
"274.7999999821186","80","-15.38","-20.00","30","loss","0","html-keyboard-response","381","325296","0.0-4.0-2.0-1.0-0.39","delayed","trial","24/05/2022","17:24:11","o8abhhcn7"
"501.40000000596046","80","9.17","10.00","90","reward","0","html-keyboard-response","385","328943","0.0-4.0-3.0-1.0-0.0","delayed","trial","24/05/2022","17:24:11","o8abhhcn7"
"301.90000000596046","81","9.98","10.00","180","reward","1","html-keyboard-response","388","331251","0.0-4.0-3.0-1.0-0.1","delayed","trial","24/05/2022","17:24:11","o8abhhcn7"
"417.30000001192093","80","16.95","20.00","180","reward","0","html-keyboard-response","391","333676","0.0-4.0-3.0-1.0-0.2","delayed","trial","24/05/2022","17:24:11","o8abhhcn7"
"330.2999999821186","81","10.53","20.00","90","reward","0","html-keyboard-response","394","336018","0.0-4.0-3.0-1.0-0.3","immediate","trial","24/05/2022","17:24:11","o8abhhcn7"
"551.7000000178814","80","9.99","10.00","7","reward","1","html-keyboard-response","397","338578","0.0-4.0-3.0-1.0-0.4","immediate","trial","24/05/2022","17:24:11","o8abhhcn7"
"515.9000000059605","81","19.86","20.00","7","reward","0","html-keyboard-response","400","341103","0.0-4.0-3.0-1.0-0.5","immediate","trial","24/05/2022","17:24:11","o8abhhcn7"
"324.09999999403954","80","0.46","50.00","180","reward","1","html-keyboard-response","403","343436","0.0-4.0-3.0-1.0-0.6","immediate","trial","24/05/2022","17:24:11","o8abhhcn7"
"352.7000000178814","80","0.53","10.00","30","reward","0","html-keyboard-response","406","345798","0.0-4.0-3.0-1.0-0.7","delayed","trial","24/05/2022","17:24:11","o8abhhcn7"
"448.5","80","19.93","20.00","365","reward","1","html-keyboard-response","409","348256","0.0-4.0-3.0-1.0-0.8","immediate","trial","24/05/2022","17:24:11","o8abhhcn7"
"876.5","80","19.42","20.00","30","reward","0","html-keyboard-response","412","351143","0.0-4.0-3.0-1.0-0.9","delayed","trial","24/05/2022","17:24:11","o8abhhcn7"
"420.59999999403954","80","4.97","5.00","7","reward","0","html-keyboard-response","415","353575","0.0-4.0-3.0-1.0-0.10","delayed","trial","24/05/2022","17:24:11","o8abhhcn7"
"677.4000000059605","81","1.05","20.00","30","reward","0","html-keyboard-response","418","356262","0.0-4.0-3.0-1.0-0.11","immediate","trial","24/05/2022","17:24:11","o8abhhcn7"
"262.40000000596046","80","4.24","5.00","180","reward","1","html-keyboard-response","421","358529","0.0-4.0-3.0-1.0-0.12","immediate","trial","24/05/2022","17:24:11","o8abhhcn7"
"362.40000000596046","81","49.65","50.00","7","reward","1","html-keyboard-response","424","360896","0.0-4.0-3.0-1.0-0.13","delayed","trial","24/05/2022","17:24:11","o8abhhcn7"
"661.7000000178814","80","8.47","10.00","180","reward","0","html-keyboard-response","427","363564","0.0-4.0-3.0-1.0-0.14","delayed","trial","24/05/2022","17:24:11","o8abhhcn7"
"313.5","80","45.87","50.00","90","reward","1","html-keyboard-response","430","365882","0.0-4.0-3.0-1.0-0.15","immediate","trial","24/05/2022","17:24:11","o8abhhcn7"
"1193.2999999821186","80","49.82","50.00","365","reward","1","html-keyboard-response","433","369084","0.0-4.0-3.0-1.0-0.16","immediate","trial","24/05/2022","17:24:11","o8abhhcn7"
"460.7000000178814","80","2.63","50.00","30","reward","1","html-keyboard-response","436","371550","0.0-4.0-3.0-1.0-0.17","immediate","trial","24/05/2022","17:24:11","o8abhhcn7"
"1318.5","80","0.91","50.00","90","reward","1","html-keyboard-response","439","374878","0.0-4.0-3.0-1.0-0.18","immediate","trial","24/05/2022","17:24:11","o8abhhcn7"
"539.3000000119209","80","49.96","50.00","90","reward","0","html-keyboard-response","442","377427","0.0-4.0-3.0-1.0-0.19","delayed","trial","24/05/2022","17:24:11","o8abhhcn7"
"1195.300000011921","80","18.35","20.00","90","reward","0","html-keyboard-response","445","380631","0.0-4.0-3.0-1.0-0.20","delayed","trial","24/05/2022","17:24:11","o8abhhcn7"
"1160.2000000178814","80","36.63","50.00","365","reward","1","html-keyboard-response","448","383796","0.0-4.0-3.0-1.0-0.21","immediate","trial","24/05/2022","17:24:11","o8abhhcn7"
"392.39999997615814","80","4.85","5.00","30","reward","0","html-keyboard-response","451","386196","0.0-4.0-3.0-1.0-0.22","delayed","trial","24/05/2022","17:24:11","o8abhhcn7"
"755","80","9.35","10.00","7","reward","1","html-keyboard-response","454","388959","0.0-4.0-3.0-1.0-0.23","immediate","trial","24/05/2022","17:24:11","o8abhhcn7"
"363.80000001192093","81","3.85","5.00","30","reward","1","html-keyboard-response","457","391330","0.0-4.0-3.0-1.0-0.24","delayed","trial","24/05/2022","17:24:11","o8abhhcn7"
"477.7000000178814","80","49.91","50.00","180","reward","0","html-keyboard-response","460","393815","0.0-4.0-3.0-1.0-0.25","delayed","trial","24/05/2022","17:24:11","o8abhhcn7"
"241.2999999821186","81","19.96","20.00","180","reward","0","html-keyboard-response","463","396066","0.0-4.0-3.0-1.0-0.26","immediate","trial","24/05/2022","17:24:11","o8abhhcn7"
"453.7999999821186","80","0.18","10.00","90","reward","0","html-keyboard-response","466","398531","0.0-4.0-3.0-1.0-0.27","delayed","trial","24/05/2022","17:24:11","o8abhhcn7"
"336.5","81","3.66","5.00","365","reward","0","html-keyboard-response","469","400877","0.0-4.0-3.0-1.0-0.28","immediate","trial","24/05/2022","17:24:11","o8abhhcn7"
"1075.1000000238419","80","26.32","50.00","90","reward","1","html-keyboard-response","472","403963","0.0-4.0-3.0-1.0-0.29","immediate","trial","24/05/2022","17:24:11","o8abhhcn7"
"900.3000000119209","80","9.93","10.00","7","reward","0","html-keyboard-response","475","406870","0.0-4.0-3.0-1.0-0.30","delayed","trial","24/05/2022","17:24:11","o8abhhcn7"
"681.9000000059605","80","0.09","5.00","90","reward","1","html-keyboard-response","478","409561","0.0-4.0-3.0-1.0-0.31","immediate","trial","24/05/2022","17:24:11","o8abhhcn7"
"529","80","42.37","50.00","180","reward","0","html-keyboard-response","481","412098","0.0-4.0-3.0-1.0-0.32","delayed","trial","24/05/2022","17:24:11","o8abhhcn7"
"1172.5999999940395","80","0.96","5.00","7","reward","0","html-keyboard-response","484","415280","0.0-4.0-3.0-1.0-0.33","delayed","trial","24/05/2022","17:24:11","o8abhhcn7"
"352.5","80","7.69","10.00","30","reward","0","html-keyboard-response","487","417640","0.0-4.0-3.0-1.0-0.34","delayed","trial","24/05/2022","17:24:11","o8abhhcn7"
"357.2999999821186","81","0.09","10.00","180","reward","1","html-keyboard-response","490","420007","0.0-4.0-3.0-1.0-0.35","delayed","trial","24/05/2022","17:24:11","o8abhhcn7"
"542.6999999880791","80","4.67","5.00","7","reward","1","html-keyboard-response","493","422560","0.0-4.0-3.0-1.0-0.36","immediate","trial","24/05/2022","17:24:11","o8abhhcn7"
"481.2000000178814","80","49.99","50.00","7","reward","0","html-keyboard-response","496","425049","0.0-4.0-3.0-1.0-0.37","delayed","trial","24/05/2022","17:24:11","o8abhhcn7"
"1837.5","80","17.86","50.00","180","reward","0","html-keyboard-response","499","428897","0.0-4.0-3.0-1.0-0.38","delayed","trial","24/05/2022","17:24:11","o8abhhcn7"
"393.60000002384186","80","9.99","10.00","90","reward","0","html-keyboard-response","502","431296","0.0-4.0-3.0-1.0-0.39","delayed","trial","24/05/2022","17:24:11","o8abhhcn7"
