"rt","key_press","immOpt","delOpt","delay","task","randomize","trial_type","trial_index","time_elapsed","internal_node_id","choice","timelineType","startdate","starttime","subject_id"
"785.8999999999069","80","38.46","50.00","30","reward","0","html-keyboard-response","22","27942","0.0-4.0-0.0-1.0-0.0","delayed","trial","04/03/2022","16:59:47","p992kaz2f"
"395.79999999981374","81","0.96","5.00","7","reward","1","html-keyboard-response","25","30346","0.0-4.0-0.0-1.0-0.1","delayed","trial","04/03/2022","16:59:47","p992kaz2f"
"426.60000000009313","80","49.96","50.00","90","reward","1","html-keyboard-response","28","32783","0.0-4.0-0.0-1.0-0.2","immediate","trial","04/03/2022","16:59:47","p992kaz2f"
"340.79999999981374","81","9.99","10.00","90","reward","1","html-keyboard-response","31","35129","0.0-4.0-0.0-1.0-0.3","delayed","trial","04/03/2022","16:59:47","p992kaz2f"
"358.29999999981374","80","0.53","10.00","30","reward","1","html-keyboard-response","34","37493","0.0-4.0-0.0-1.0-0.4","immediate","trial","04/03/2022","16:59:47","p992kaz2f"
"570.3999999999069","80","2.63","5.00","90","reward","0","html-keyboard-response","37","40074","0.0-4.0-0.0-1.0-0.5","delayed","trial","04/03/2022","16:59:47","p992kaz2f"
"379.90000000037253","81","19.98","20.00","90","reward","1","html-keyboard-response","40","42459","0.0-4.0-0.0-1.0-0.6","delayed","trial","04/03/2022","16:59:47","p992kaz2f"
"401.1999999997206","80","9.35","10.00","7","reward","0","html-keyboard-response","43","44870","0.0-4.0-0.0-1.0-0.7","delayed","trial","04/03/2022","16:59:47","p992kaz2f"
"5523.399999999907","81","36.63","50.00","365","reward","1","html-keyboard-response","46","52403","0.0-4.0-0.0-1.0-0.8","delayed","trial","04/03/2022","16:59:47","p992kaz2f"
"463.79999999981374","81","18.35","20.00","90","reward","1","html-keyboard-response","49","54874","0.0-4.0-0.0-1.0-0.9","delayed","trial","04/03/2022","16:59:47","p992kaz2f"
"312.79999999981374","81","1.79","5.00","180","reward","0","html-keyboard-response","52","57193","0.0-4.0-0.0-1.0-0.10","immediate","trial","04/03/2022","16:59:47","p992kaz2f"
"475.89999999990687","80","19.86","20.00","7","reward","0","html-keyboard-response","55","59676","0.0-4.0-0.0-1.0-0.11","delayed","trial","04/03/2022","16:59:47","p992kaz2f"
"1379.1000000000931","80","4.59","5.00","90","reward","0","html-keyboard-response","58","63064","0.0-4.0-0.0-1.0-0.12","delayed","trial","04/03/2022","16:59:47","p992kaz2f"
"498.10000000009313","81","49.65","50.00","7","reward","1","html-keyboard-response","61","65570","0.0-4.0-0.0-1.0-0.13","delayed","trial","04/03/2022","16:59:47","p992kaz2f"
"515.4000000003725","81","4.99","5.00","7","reward","1","html-keyboard-response","64","68093","0.0-4.0-0.0-1.0-0.14","delayed","trial","04/03/2022","16:59:47","p992kaz2f"
"352.09999999962747","80","0.09","5.00","90","reward","0","html-keyboard-response","67","70453","0.0-4.0-0.0-1.0-0.15","delayed","trial","04/03/2022","16:59:47","p992kaz2f"
"482.20000000018626","80","42.37","50.00","180","reward","0","html-keyboard-response","70","72941","0.0-4.0-0.0-1.0-0.16","delayed","trial","04/03/2022","16:59:47","p992kaz2f"
"420","80","3.66","5.00","365","reward","0","html-keyboard-response","73","75369","0.0-4.0-0.0-1.0-0.17","delayed","trial","04/03/2022","16:59:47","p992kaz2f"
"502.79999999981374","81","0.05","5.00","180","reward","1","html-keyboard-response","76","77878","0.0-4.0-0.0-1.0-0.18","delayed","trial","04/03/2022","16:59:47","p992kaz2f"
"469.5","80","4.24","5.00","180","reward","0","html-keyboard-response","79","80357","0.0-4.0-0.0-1.0-0.19","delayed","trial","04/03/2022","16:59:47","p992kaz2f"
"439.5","80","9.93","10.00","7","reward","0","html-keyboard-response","82","82807","0.0-4.0-0.0-1.0-0.20","delayed","trial","04/03/2022","16:59:47","p992kaz2f"
"499","81","18.69","20.00","7","reward","1","html-keyboard-response","85","85317","0.0-4.0-0.0-1.0-0.21","delayed","trial","04/03/2022","16:59:47","p992kaz2f"
"535.3999999999069","81","4.67","5.00","7","reward","1","html-keyboard-response","88","87858","0.0-4.0-0.0-1.0-0.22","delayed","trial","04/03/2022","16:59:47","p992kaz2f"
"2753.100000000093","81","48.54","50.00","30","reward","1","html-keyboard-response","91","92620","0.0-4.0-0.0-1.0-0.23","delayed","trial","04/03/2022","16:59:47","p992kaz2f"
"346.59999999962747","81","49.99","50.00","30","reward","1","html-keyboard-response","94","94978","0.0-4.0-0.0-1.0-0.24","delayed","trial","04/03/2022","16:59:47","p992kaz2f"
"415.39999999990687","80","9.96","10.00","365","reward","0","html-keyboard-response","97","97404","0.0-4.0-0.0-1.0-0.25","delayed","trial","04/03/2022","16:59:47","p992kaz2f"
"439.90000000037253","80","7.14","20.00","180","reward","0","html-keyboard-response","100","99853","0.0-4.0-0.0-1.0-0.26","delayed","trial","04/03/2022","16:59:47","p992kaz2f"
"355.8000000002794","81","0.36","20.00","90","reward","1","html-keyboard-response","103","102217","0.0-4.0-0.0-1.0-0.27","delayed","trial","04/03/2022","16:59:47","p992kaz2f"
"354.39999999990687","80","2.63","50.00","30","reward","0","html-keyboard-response","106","104578","0.0-4.0-0.0-1.0-0.28","delayed","trial","04/03/2022","16:59:47","p992kaz2f"
"403.79999999981374","81","49.91","50.00","180","reward","1","html-keyboard-response","109","106990","0.0-4.0-0.0-1.0-0.29","delayed","trial","04/03/2022","16:59:47","p992kaz2f"
"344","80","4.98","5.00","365","reward","0","html-keyboard-response","112","109344","0.0-4.0-0.0-1.0-0.30","delayed","trial","04/03/2022","16:59:47","p992kaz2f"
"347.60000000009313","81","9.71","10.00","30","reward","1","html-keyboard-response","115","111697","0.0-4.0-0.0-1.0-0.31","delayed","trial","04/03/2022","16:59:47","p992kaz2f"
"358.5","80","3.85","20.00","7","reward","0","html-keyboard-response","118","114060","0.0-4.0-0.0-1.0-0.32","delayed","trial","04/03/2022","16:59:47","p992kaz2f"
"566.0999999996275","81","4.30","20.00","365","reward","1","html-keyboard-response","121","116636","0.0-4.0-0.0-1.0-0.33","delayed","trial","04/03/2022","16:59:47","p992kaz2f"
"459","81","9.99","10.00","30","reward","1","html-keyboard-response","124","119103","0.0-4.0-0.0-1.0-0.34","delayed","trial","04/03/2022","16:59:47","p992kaz2f"
"391.09999999962747","81","0.05","10.00","365","reward","1","html-keyboard-response","127","121501","0.0-4.0-0.0-1.0-0.35","delayed","trial","04/03/2022","16:59:47","p992kaz2f"
"430.90000000037253","80","4.99","5.00","30","reward","0","html-keyboard-response","130","123940","0.0-4.0-0.0-1.0-0.36","delayed","trial","04/03/2022","16:59:47","p992kaz2f"
"587.3999999999069","81","0.18","10.00","90","reward","1","html-keyboard-response","133","126534","0.0-4.0-0.0-1.0-0.37","delayed","trial","04/03/2022","16:59:47","p992kaz2f"
"396.40000000037253","80","0.23","50.00","365","reward","0","html-keyboard-response","136","128937","0.0-4.0-0.0-1.0-0.38","delayed","trial","04/03/2022","16:59:47","p992kaz2f"
"371.39999999990687","81","0.09","20.00","365","reward","1","html-keyboard-response","139","131316","0.0-4.0-0.0-1.0-0.39","delayed","trial","04/03/2022","16:59:47","p992kaz2f"
"543.5","80","-4.59","-5.00","90","loss","0","html-keyboard-response","143","135675","0.0-4.0-1.0-1.0-0.0","delayed","trial","04/03/2022","16:59:47","p992kaz2f"
"448","80","-49.99","-50.00","30","loss","0","html-keyboard-response","146","138128","0.0-4.0-1.0-1.0-0.1","delayed","trial","04/03/2022","16:59:47","p992kaz2f"
"362.60000000009313","80","-0.02","-10.00","1095","loss","0","html-keyboard-response","149","140496","0.0-4.0-1.0-1.0-0.2","delayed","trial","04/03/2022","16:59:47","p992kaz2f"
"530.0999999996275","81","-0.09","-10.00","180","loss","1","html-keyboard-response","152","143032","0.0-4.0-1.0-1.0-0.3","delayed","trial","04/03/2022","16:59:47","p992kaz2f"
"608.2999999998137","81","-9.71","-10.00","30","loss","1","html-keyboard-response","155","145649","0.0-4.0-1.0-1.0-0.4","delayed","trial","04/03/2022","16:59:47","p992kaz2f"
"387","81","-9.96","-10.00","365","loss","1","html-keyboard-response","158","148046","0.0-4.0-1.0-1.0-0.5","delayed","trial","04/03/2022","16:59:47","p992kaz2f"
"465","80","-36.63","-50.00","365","loss","0","html-keyboard-response","161","150518","0.0-4.0-1.0-1.0-0.6","delayed","trial","04/03/2022","16:59:47","p992kaz2f"
"506.3000000002794","81","-0.02","-5.00","365","loss","1","html-keyboard-response","164","153032","0.0-4.0-1.0-1.0-0.7","delayed","trial","04/03/2022","16:59:47","p992kaz2f"
"395","80","-18.35","-20.00","90","loss","0","html-keyboard-response","167","155436","0.0-4.0-1.0-1.0-0.8","delayed","trial","04/03/2022","16:59:47","p992kaz2f"
"382.10000000009313","80","-9.98","-10.00","180","loss","0","html-keyboard-response","170","157823","0.0-4.0-1.0-1.0-0.9","delayed","trial","04/03/2022","16:59:47","p992kaz2f"
"416.3000000002794","80","-19.98","-20.00","90","loss","0","html-keyboard-response","173","160246","0.0-4.0-1.0-1.0-0.10","delayed","trial","04/03/2022","16:59:47","p992kaz2f"
"364","80","-0.46","-50.00","180","loss","0","html-keyboard-response","176","162615","0.0-4.0-1.0-1.0-0.11","delayed","trial","04/03/2022","16:59:47","p992kaz2f"
"409.60000000009313","80","-4.99","-5.00","180","loss","1","html-keyboard-response","179","165035","0.0-4.0-1.0-1.0-0.12","immediate","trial","04/03/2022","16:59:47","p992kaz2f"
"405.29999999981374","81","-14.65","-20.00","365","loss","1","html-keyboard-response","182","167451","0.0-4.0-1.0-1.0-0.13","delayed","trial","04/03/2022","16:59:47","p992kaz2f"
"377.79999999981374","80","-23.87","-50.00","1095","loss","0","html-keyboard-response","185","169834","0.0-4.0-1.0-1.0-0.14","delayed","trial","04/03/2022","16:59:47","p992kaz2f"
"270.79999999981374","81","-3.85","-5.00","30","loss","1","html-keyboard-response","188","172111","0.0-4.0-1.0-1.0-0.15","delayed","trial","04/03/2022","16:59:47","p992kaz2f"
"382.90000000037253","80","-1.05","-20.00","30","loss","0","html-keyboard-response","191","174501","0.0-4.0-1.0-1.0-0.16","delayed","trial","04/03/2022","16:59:47","p992kaz2f"
"398.1999999997206","80","-19.99","-20.00","30","loss","0","html-keyboard-response","194","176906","0.0-4.0-1.0-1.0-0.17","delayed","trial","04/03/2022","16:59:47","p992kaz2f"
"376.89999999990687","80","-7.33","-10.00","365","loss","0","html-keyboard-response","197","179290","0.0-4.0-1.0-1.0-0.18","delayed","trial","04/03/2022","16:59:47","p992kaz2f"
"348.10000000009313","80","-49.82","-50.00","365","loss","0","html-keyboard-response","200","181643","0.0-4.0-1.0-1.0-0.19","delayed","trial","04/03/2022","16:59:47","p992kaz2f"
"328.10000000009313","80","-4.99","-5.00","30","loss","1","html-keyboard-response","203","183977","0.0-4.0-1.0-1.0-0.20","immediate","trial","04/03/2022","16:59:47","p992kaz2f"
"301.39999999990687","81","-1.67","-20.00","1095","loss","0","html-keyboard-response","206","186286","0.0-4.0-1.0-1.0-0.21","immediate","trial","04/03/2022","16:59:47","p992kaz2f"
"600.8999999999069","80","-0.03","-20.00","1095","loss","1","html-keyboard-response","209","188895","0.0-4.0-1.0-1.0-0.22","immediate","trial","04/03/2022","16:59:47","p992kaz2f"
"363.60000000009313","81","-4.95","-5.00","1095","loss","0","html-keyboard-response","212","191266","0.0-4.0-1.0-1.0-0.23","immediate","trial","04/03/2022","16:59:47","p992kaz2f"
"502.6999999997206","80","-7.14","-20.00","180","loss","1","html-keyboard-response","215","193778","0.0-4.0-1.0-1.0-0.24","immediate","trial","04/03/2022","16:59:47","p992kaz2f"
"414.59999999962747","81","-0.18","-20.00","180","loss","1","html-keyboard-response","218","196202","0.0-4.0-1.0-1.0-0.25","delayed","trial","04/03/2022","16:59:47","p992kaz2f"
"419.79999999981374","81","-3.66","-5.00","365","loss","1","html-keyboard-response","221","198629","0.0-4.0-1.0-1.0-0.26","delayed","trial","04/03/2022","16:59:47","p992kaz2f"
"505.6999999997206","80","-19.78","-20.00","1095","loss","0","html-keyboard-response","224","201141","0.0-4.0-1.0-1.0-0.27","delayed","trial","04/03/2022","16:59:47","p992kaz2f"
"489.70000000018626","81","-2.63","-50.00","30","loss","1","html-keyboard-response","227","203637","0.0-4.0-1.0-1.0-0.28","delayed","trial","04/03/2022","16:59:47","p992kaz2f"
"391.59999999962747","81","-10.75","-50.00","365","loss","1","html-keyboard-response","230","206035","0.0-4.0-1.0-1.0-0.29","delayed","trial","04/03/2022","16:59:47","p992kaz2f"
"356.29999999981374","81","-0.42","-5.00","1095","loss","1","html-keyboard-response","233","208400","0.0-4.0-1.0-1.0-0.30","delayed","trial","04/03/2022","16:59:47","p992kaz2f"
"498","80","-17.86","-50.00","180","loss","0","html-keyboard-response","236","210909","0.0-4.0-1.0-1.0-0.31","delayed","trial","04/03/2022","16:59:47","p992kaz2f"
"366.5","81","-4.99","-5.00","90","loss","1","html-keyboard-response","239","213285","0.0-4.0-1.0-1.0-0.32","delayed","trial","04/03/2022","16:59:47","p992kaz2f"
"433.29999999981374","81","-45.87","-50.00","90","loss","1","html-keyboard-response","242","215725","0.0-4.0-1.0-1.0-0.33","delayed","trial","04/03/2022","16:59:47","p992kaz2f"
"488.39999999990687","80","-49.46","-50.00","1095","loss","0","html-keyboard-response","245","218223","0.0-4.0-1.0-1.0-0.34","delayed","trial","04/03/2022","16:59:47","p992kaz2f"
"459.89999999990687","81","-0.05","-5.00","180","loss","1","html-keyboard-response","248","220690","0.0-4.0-1.0-1.0-0.35","delayed","trial","04/03/2022","16:59:47","p992kaz2f"
"449","80","-0.01","-5.00","1095","loss","0","html-keyboard-response","251","223149","0.0-4.0-1.0-1.0-0.36","delayed","trial","04/03/2022","16:59:47","p992kaz2f"
"466.39999999990687","80","-0.53","-10.00","30","loss","0","html-keyboard-response","254","225625","0.0-4.0-1.0-1.0-0.37","delayed","trial","04/03/2022","16:59:47","p992kaz2f"
"409.5","81","-2.39","-5.00","1095","loss","1","html-keyboard-response","257","228043","0.0-4.0-1.0-1.0-0.38","delayed","trial","04/03/2022","16:59:47","p992kaz2f"
"523.8999999999069","81","-19.96","-20.00","180","loss","1","html-keyboard-response","260","230573","0.0-4.0-1.0-1.0-0.39","delayed","trial","04/03/2022","16:59:47","p992kaz2f"
"642.6000000000931","80","0.26","5.00","30","reward","1","html-keyboard-response","264","235877","0.0-4.0-2.0-1.0-0.0","immediate","trial","04/03/2022","16:59:47","p992kaz2f"
"399.29999999981374","80","0.91","50.00","90","reward","0","html-keyboard-response","267","238283","0.0-4.0-2.0-1.0-0.1","delayed","trial","04/03/2022","16:59:47","p992kaz2f"
"395.10000000009313","80","49.99","50.00","7","reward","0","html-keyboard-response","270","240684","0.0-4.0-2.0-1.0-0.2","delayed","trial","04/03/2022","16:59:47","p992kaz2f"
"302.1999999997206","80","7.33","10.00","365","reward","0","html-keyboard-response","273","242991","0.0-4.0-2.0-1.0-0.3","delayed","trial","04/03/2022","16:59:47","p992kaz2f"
"287.29999999981374","80","19.96","20.00","180","reward","0","html-keyboard-response","276","245286","0.0-4.0-2.0-1.0-0.4","delayed","trial","04/03/2022","16:59:47","p992kaz2f"
"293.20000000018626","80","9.98","10.00","180","reward","0","html-keyboard-response","279","247585","0.0-4.0-2.0-1.0-0.5","delayed","trial","04/03/2022","16:59:47","p992kaz2f"
"306.5","80","9.17","10.00","90","reward","0","html-keyboard-response","282","249897","0.0-4.0-2.0-1.0-0.6","delayed","trial","04/03/2022","16:59:47","p992kaz2f"
"255.79999999981374","80","3.57","10.00","180","reward","1","html-keyboard-response","285","252161","0.0-4.0-2.0-1.0-0.7","immediate","trial","04/03/2022","16:59:47","p992kaz2f"
"342.40000000037253","80","49.82","50.00","365","reward","0","html-keyboard-response","288","254509","0.0-4.0-2.0-1.0-0.8","delayed","trial","04/03/2022","16:59:47","p992kaz2f"
"371.10000000009313","80","4.85","5.00","30","reward","1","html-keyboard-response","291","256889","0.0-4.0-2.0-1.0-0.9","immediate","trial","04/03/2022","16:59:47","p992kaz2f"
"325.8000000002794","80","45.87","50.00","90","reward","1","html-keyboard-response","294","259223","0.0-4.0-2.0-1.0-0.10","immediate","trial","04/03/2022","16:59:47","p992kaz2f"
"315.60000000009313","80","5.26","10.00","90","reward","1","html-keyboard-response","297","261543","0.0-4.0-2.0-1.0-0.11","immediate","trial","04/03/2022","16:59:47","p992kaz2f"
"349.20000000018626","80","0.46","50.00","180","reward","1","html-keyboard-response","300","263903","0.0-4.0-2.0-1.0-0.12","immediate","trial","04/03/2022","16:59:47","p992kaz2f"
"372.5","80","19.99","20.00","30","reward","0","html-keyboard-response","303","266283","0.0-4.0-2.0-1.0-0.13","delayed","trial","04/03/2022","16:59:47","p992kaz2f"
"215.89999999990687","80","15.38","20.00","30","reward","1","html-keyboard-response","306","268505","0.0-4.0-2.0-1.0-0.14","immediate","trial","04/03/2022","16:59:47","p992kaz2f"
"364.10000000009313","80","1.08","5.00","365","reward","0","html-keyboard-response","309","270877","0.0-4.0-2.0-1.0-0.15","delayed","trial","04/03/2022","16:59:47","p992kaz2f"
"357.10000000009313","80","26.32","50.00","90","reward","1","html-keyboard-response","312","273245","0.0-4.0-2.0-1.0-0.16","immediate","trial","04/03/2022","16:59:47","p992kaz2f"
"348.70000000018626","80","10.53","20.00","90","reward","1","html-keyboard-response","315","275604","0.0-4.0-2.0-1.0-0.17","immediate","trial","04/03/2022","16:59:47","p992kaz2f"
"382.89999999990687","80","4.99","5.00","180","reward","0","html-keyboard-response","318","277995","0.0-4.0-2.0-1.0-0.18","delayed","trial","04/03/2022","16:59:47","p992kaz2f"
"803.6000000000931","80","14.65","20.00","365","reward","0","html-keyboard-response","321","280805","0.0-4.0-2.0-1.0-0.19","delayed","trial","04/03/2022","16:59:47","p992kaz2f"
"427.60000000009313","80","9.99","10.00","7","reward","1","html-keyboard-response","324","283240","0.0-4.0-2.0-1.0-0.20","immediate","trial","04/03/2022","16:59:47","p992kaz2f"
"481.89999999990687","80","46.73","50.00","7","reward","1","html-keyboard-response","327","285726","0.0-4.0-2.0-1.0-0.21","immediate","trial","04/03/2022","16:59:47","p992kaz2f"
"376.60000000009313","80","0.09","10.00","180","reward","0","html-keyboard-response","330","288112","0.0-4.0-2.0-1.0-0.22","delayed","trial","04/03/2022","16:59:47","p992kaz2f"
"1260","80","2.15","10.00","365","reward","1","html-keyboard-response","333","291379","0.0-4.0-2.0-1.0-0.23","immediate","trial","04/03/2022","16:59:47","p992kaz2f"
"928.2999999998137","80","16.95","20.00","180","reward","1","html-keyboard-response","336","294317","0.0-4.0-2.0-1.0-0.24","immediate","trial","04/03/2022","16:59:47","p992kaz2f"
"485.10000000009313","80","0.18","20.00","180","reward","0","html-keyboard-response","339","296807","0.0-4.0-2.0-1.0-0.25","delayed","trial","04/03/2022","16:59:47","p992kaz2f"
"588","80","7.69","10.00","30","reward","1","html-keyboard-response","342","299400","0.0-4.0-2.0-1.0-0.26","immediate","trial","04/03/2022","16:59:47","p992kaz2f"
"514.8000000002794","80","19.93","20.00","365","reward","0","html-keyboard-response","345","301919","0.0-4.0-2.0-1.0-0.27","delayed","trial","04/03/2022","16:59:47","p992kaz2f"
"350.89999999990687","80","3.85","5.00","30","reward","0","html-keyboard-response","348","304278","0.0-4.0-2.0-1.0-0.28","delayed","trial","04/03/2022","16:59:47","p992kaz2f"
"391.60000000009313","80","19.99","20.00","7","reward","0","html-keyboard-response","351","306676","0.0-4.0-2.0-1.0-0.29","delayed","trial","04/03/2022","16:59:47","p992kaz2f"
"345.10000000009313","80","10.75","50.00","365","reward","0","html-keyboard-response","354","309030","0.0-4.0-2.0-1.0-0.30","delayed","trial","04/03/2022","16:59:47","p992kaz2f"
"426.6999999997206","80","17.86","50.00","180","reward","0","html-keyboard-response","357","311463","0.0-4.0-2.0-1.0-0.31","delayed","trial","04/03/2022","16:59:47","p992kaz2f"
"350.6999999997206","80","8.47","10.00","180","reward","1","html-keyboard-response","360","313819","0.0-4.0-2.0-1.0-0.32","immediate","trial","04/03/2022","16:59:47","p992kaz2f"
"556.3999999999069","80","4.97","5.00","7","reward","1","html-keyboard-response","363","316385","0.0-4.0-2.0-1.0-0.33","immediate","trial","04/03/2022","16:59:47","p992kaz2f"
"410.39999999990687","80","9.62","50.00","7","reward","1","html-keyboard-response","366","318802","0.0-4.0-2.0-1.0-0.34","immediate","trial","04/03/2022","16:59:47","p992kaz2f"
"400.8000000002794","80","0.02","5.00","365","reward","0","html-keyboard-response","369","321208","0.0-4.0-2.0-1.0-0.35","delayed","trial","04/03/2022","16:59:47","p992kaz2f"
"326.89999999990687","80","4.99","5.00","90","reward","1","html-keyboard-response","372","323539","0.0-4.0-2.0-1.0-0.36","immediate","trial","04/03/2022","16:59:47","p992kaz2f"
"454.09999999962747","80","1.05","20.00","30","reward","1","html-keyboard-response","375","326003","0.0-4.0-2.0-1.0-0.37","immediate","trial","04/03/2022","16:59:47","p992kaz2f"
"391.40000000037253","80","19.42","20.00","30","reward","1","html-keyboard-response","378","328399","0.0-4.0-2.0-1.0-0.38","immediate","trial","04/03/2022","16:59:47","p992kaz2f"
"455.5","80","1.92","10.00","7","reward","1","html-keyboard-response","381","330863","0.0-4.0-2.0-1.0-0.39","immediate","trial","04/03/2022","16:59:47","p992kaz2f"
"528.3999999999069","80","-19.93","-20.00","365","loss","0","html-keyboard-response","385","334732","0.0-4.0-3.0-1.0-0.0","delayed","trial","04/03/2022","16:59:47","p992kaz2f"
"422","80","-9.99","-10.00","30","loss","1","html-keyboard-response","388","337160","0.0-4.0-3.0-1.0-0.1","immediate","trial","04/03/2022","16:59:47","p992kaz2f"
"398.89999999990687","80","-1.79","-5.00","180","loss","0","html-keyboard-response","391","339569","0.0-4.0-3.0-1.0-0.2","delayed","trial","04/03/2022","16:59:47","p992kaz2f"
"363.70000000018626","80","-0.05","-10.00","365","loss","0","html-keyboard-response","394","341939","0.0-4.0-3.0-1.0-0.3","delayed","trial","04/03/2022","16:59:47","p992kaz2f"
"443.79999999981374","80","-26.32","-50.00","90","loss","0","html-keyboard-response","397","344393","0.0-4.0-3.0-1.0-0.4","delayed","trial","04/03/2022","16:59:47","p992kaz2f"
"582.6000000000931","80","-4.30","-20.00","365","loss","1","html-keyboard-response","400","346985","0.0-4.0-3.0-1.0-0.5","immediate","trial","04/03/2022","16:59:47","p992kaz2f"
"487.70000000018626","80","-0.08","-50.00","1095","loss","1","html-keyboard-response","403","349482","0.0-4.0-3.0-1.0-0.6","immediate","trial","04/03/2022","16:59:47","p992kaz2f"
"339.3000000002794","80","-0.09","-5.00","90","loss","0","html-keyboard-response","406","351829","0.0-4.0-3.0-1.0-0.7","delayed","trial","04/03/2022","16:59:47","p992kaz2f"
"372.5","80","-0.18","-10.00","90","loss","1","html-keyboard-response","409","354209","0.0-4.0-3.0-1.0-0.8","immediate","trial","04/03/2022","16:59:47","p992kaz2f"
"483.20000000018626","80","-19.42","-20.00","30","loss","0","html-keyboard-response","412","356699","0.0-4.0-3.0-1.0-0.9","delayed","trial","04/03/2022","16:59:47","p992kaz2f"
"415.90000000037253","80","-15.38","-20.00","30","loss","0","html-keyboard-response","415","359124","0.0-4.0-3.0-1.0-0.10","delayed","trial","04/03/2022","16:59:47","p992kaz2f"
"363.59999999962747","80","-10.53","-20.00","90","loss","1","html-keyboard-response","418","361497","0.0-4.0-3.0-1.0-0.11","immediate","trial","04/03/2022","16:59:47","p992kaz2f"
"555.7000000001863","80","-38.46","-50.00","30","loss","1","html-keyboard-response","421","364062","0.0-4.0-3.0-1.0-0.12","immediate","trial","04/03/2022","16:59:47","p992kaz2f"
"391.5","80","-3.57","-10.00","180","loss","1","html-keyboard-response","424","366463","0.0-4.0-3.0-1.0-0.13","immediate","trial","04/03/2022","16:59:47","p992kaz2f"
"285.8000000002794","80","-4.85","-5.00","30","loss","1","html-keyboard-response","427","368758","0.0-4.0-3.0-1.0-0.14","immediate","trial","04/03/2022","16:59:47","p992kaz2f"
"598.2999999998137","80","-9.55","-20.00","1095","loss","0","html-keyboard-response","430","371363","0.0-4.0-3.0-1.0-0.15","delayed","trial","04/03/2022","16:59:47","p992kaz2f"
"834.1000000000931","80","-9.17","-10.00","90","loss","1","html-keyboard-response","433","374204","0.0-4.0-3.0-1.0-0.16","immediate","trial","04/03/2022","16:59:47","p992kaz2f"
"500.89999999990687","80","-48.54","-50.00","30","loss","1","html-keyboard-response","436","376711","0.0-4.0-3.0-1.0-0.17","immediate","trial","04/03/2022","16:59:47","p992kaz2f"
"802.7999999998137","80","-2.15","-10.00","365","loss","0","html-keyboard-response","439","379520","0.0-4.0-3.0-1.0-0.18","delayed","trial","04/03/2022","16:59:47","p992kaz2f"
"340.60000000009313","80","-4.98","-5.00","365","loss","1","html-keyboard-response","442","381868","0.0-4.0-3.0-1.0-0.19","immediate","trial","04/03/2022","16:59:47","p992kaz2f"
"316.1999999997206","80","-2.63","-5.00","90","loss","0","html-keyboard-response","445","384190","0.0-4.0-3.0-1.0-0.20","delayed","trial","04/03/2022","16:59:47","p992kaz2f"
"354.89999999990687","80","-7.69","-10.00","30","loss","0","html-keyboard-response","448","386555","0.0-4.0-3.0-1.0-0.21","delayed","trial","04/03/2022","16:59:47","p992kaz2f"
"363.3000000002794","80","-9.99","-10.00","90","loss","0","html-keyboard-response","451","388926","0.0-4.0-3.0-1.0-0.22","delayed","trial","04/03/2022","16:59:47","p992kaz2f"
"649.3999999999069","80","-42.37","-50.00","180","loss","0","html-keyboard-response","454","391580","0.0-4.0-3.0-1.0-0.23","delayed","trial","04/03/2022","16:59:47","p992kaz2f"
"430.79999999981374","80","-0.23","-50.00","365","loss","0","html-keyboard-response","457","394017","0.0-4.0-3.0-1.0-0.24","delayed","trial","04/03/2022","16:59:47","p992kaz2f"
"397.70000000018626","80","-1.08","-5.00","365","loss","1","html-keyboard-response","460","396422","0.0-4.0-3.0-1.0-0.25","immediate","trial","04/03/2022","16:59:47","p992kaz2f"
"382.89999999990687","80","-49.91","-50.00","180","loss","1","html-keyboard-response","463","398812","0.0-4.0-3.0-1.0-0.26","immediate","trial","04/03/2022","16:59:47","p992kaz2f"
"458","80","-0.26","-5.00","30","loss","0","html-keyboard-response","466","401277","0.0-4.0-3.0-1.0-0.27","delayed","trial","04/03/2022","16:59:47","p992kaz2f"
"483.70000000018626","80","-49.96","-50.00","90","loss","0","html-keyboard-response","469","403766","0.0-4.0-3.0-1.0-0.28","delayed","trial","04/03/2022","16:59:47","p992kaz2f"
"501.29999999981374","80","-0.84","-10.00","1095","loss","1","html-keyboard-response","472","406275","0.0-4.0-3.0-1.0-0.29","immediate","trial","04/03/2022","16:59:47","p992kaz2f"
"521.2999999998137","80","-9.89","-10.00","1095","loss","0","html-keyboard-response","475","408801","0.0-4.0-3.0-1.0-0.30","delayed","trial","04/03/2022","16:59:47","p992kaz2f"
"372.89999999990687","80","-0.36","-20.00","90","loss","0","html-keyboard-response","478","411181","0.0-4.0-3.0-1.0-0.31","delayed","trial","04/03/2022","16:59:47","p992kaz2f"
"549.7999999998137","80","-0.09","-20.00","365","loss","1","html-keyboard-response","481","413737","0.0-4.0-3.0-1.0-0.32","immediate","trial","04/03/2022","16:59:47","p992kaz2f"
"1064.8000000002794","80","-16.95","-20.00","180","loss","0","html-keyboard-response","484","416809","0.0-4.0-3.0-1.0-0.33","delayed","trial","04/03/2022","16:59:47","p992kaz2f"
"548","80","-4.18","-50.00","1095","loss","0","html-keyboard-response","487","419368","0.0-4.0-3.0-1.0-0.34","delayed","trial","04/03/2022","16:59:47","p992kaz2f"
"674.7999999998137","80","-0.91","-50.00","90","loss","1","html-keyboard-response","490","422047","0.0-4.0-3.0-1.0-0.35","immediate","trial","04/03/2022","16:59:47","p992kaz2f"
"818.8999999999069","80","-4.24","-5.00","180","loss","0","html-keyboard-response","493","424875","0.0-4.0-3.0-1.0-0.36","delayed","trial","04/03/2022","16:59:47","p992kaz2f"
"498.89999999990687","80","-5.26","-10.00","90","loss","1","html-keyboard-response","496","427382","0.0-4.0-3.0-1.0-0.37","immediate","trial","04/03/2022","16:59:47","p992kaz2f"
"369.1999999997206","80","-4.77","-10.00","1095","loss","1","html-keyboard-response","499","429759","0.0-4.0-3.0-1.0-0.38","immediate","trial","04/03/2022","16:59:47","p992kaz2f"
"404.10000000009313","80","-8.47","-10.00","180","loss","1","html-keyboard-response","502","432168","0.0-4.0-3.0-1.0-0.39","immediate","trial","04/03/2022","16:59:47","p992kaz2f"
