"rt","key_press","immOpt","delOpt","delay","task","randomize","trial_type","trial_index","time_elapsed","internal_node_id","choice","timelineType","startdate","starttime","subject_id"
"564.6999999880791","80","4.99","5.00","7","reward","1","html-keyboard-response","22","23923","0.0-4.0-0.0-1.0-0.0","immediate","trial","27/05/2022","11:17:19","w0gzm0ufe"
"370.69999998807907","81","3.85","5.00","30","reward","0","html-keyboard-response","25","26301","0.0-4.0-0.0-1.0-0.1","immediate","trial","27/05/2022","11:17:19","w0gzm0ufe"
"351.7000000178814","80","16.95","20.00","180","reward","0","html-keyboard-response","28","28662","0.0-4.0-0.0-1.0-0.2","delayed","trial","27/05/2022","11:17:19","w0gzm0ufe"
"588.2999999821186","80","9.93","10.00","7","reward","1","html-keyboard-response","31","31255","0.0-4.0-0.0-1.0-0.3","immediate","trial","27/05/2022","11:17:19","w0gzm0ufe"
"344.5","81","45.87","50.00","90","reward","0","html-keyboard-response","34","33608","0.0-4.0-0.0-1.0-0.4","immediate","trial","27/05/2022","11:17:19","w0gzm0ufe"
"402.2000000178814","80","9.99","10.00","90","reward","1","html-keyboard-response","37","36018","0.0-4.0-0.0-1.0-0.5","immediate","trial","27/05/2022","11:17:19","w0gzm0ufe"
"373.5","81","4.98","5.00","365","reward","1","html-keyboard-response","40","38400","0.0-4.0-0.0-1.0-0.6","delayed","trial","27/05/2022","11:17:19","w0gzm0ufe"
"332.40000000596046","80","9.35","10.00","7","reward","0","html-keyboard-response","43","40738","0.0-4.0-0.0-1.0-0.7","delayed","trial","27/05/2022","11:17:19","w0gzm0ufe"
"294.90000000596046","80","36.63","50.00","365","reward","0","html-keyboard-response","46","43042","0.0-4.0-0.0-1.0-0.8","delayed","trial","27/05/2022","11:17:19","w0gzm0ufe"
"249.69999998807907","81","49.99","50.00","7","reward","0","html-keyboard-response","49","45303","0.0-4.0-0.0-1.0-0.9","immediate","trial","27/05/2022","11:17:19","w0gzm0ufe"
"439.10000002384186","80","19.93","20.00","365","reward","1","html-keyboard-response","52","47751","0.0-4.0-0.0-1.0-0.10","immediate","trial","27/05/2022","11:17:19","w0gzm0ufe"
"363.80000001192093","80","4.85","5.00","30","reward","0","html-keyboard-response","55","50124","0.0-4.0-0.0-1.0-0.11","delayed","trial","27/05/2022","11:17:19","w0gzm0ufe"
"518.6999999880791","80","15.38","20.00","30","reward","0","html-keyboard-response","58","52652","0.0-4.0-0.0-1.0-0.12","delayed","trial","27/05/2022","11:17:19","w0gzm0ufe"
"371.7000000178814","80","9.99","10.00","7","reward","1","html-keyboard-response","61","55027","0.0-4.0-0.0-1.0-0.13","immediate","trial","27/05/2022","11:17:19","w0gzm0ufe"
"1706.800000011921","80","4.59","5.00","90","reward","0","html-keyboard-response","64","58741","0.0-4.0-0.0-1.0-0.14","delayed","trial","27/05/2022","11:17:19","w0gzm0ufe"
"3481.5","80","4.97","5.00","7","reward","0","html-keyboard-response","67","64233","0.0-4.0-0.0-1.0-0.15","delayed","trial","27/05/2022","11:17:19","w0gzm0ufe"
"1566.4000000059605","80","49.82","50.00","365","reward","0","html-keyboard-response","70","67806","0.0-4.0-0.0-1.0-0.16","delayed","trial","27/05/2022","11:17:19","w0gzm0ufe"
"1079.9000000059605","80","9.99","10.00","30","reward","0","html-keyboard-response","73","70893","0.0-4.0-0.0-1.0-0.17","delayed","trial","27/05/2022","11:17:19","w0gzm0ufe"
"438.5","80","9.98","10.00","180","reward","1","html-keyboard-response","76","73340","0.0-4.0-0.0-1.0-0.18","immediate","trial","27/05/2022","11:17:19","w0gzm0ufe"
"416.09999999403954","80","1.79","5.00","180","reward","1","html-keyboard-response","79","75765","0.0-4.0-0.0-1.0-0.19","immediate","trial","27/05/2022","11:17:19","w0gzm0ufe"
"315","80","9.62","50.00","7","reward","1","html-keyboard-response","82","78085","0.0-4.0-0.0-1.0-0.20","immediate","trial","27/05/2022","11:17:19","w0gzm0ufe"
"391.09999999403954","80","7.14","20.00","180","reward","1","html-keyboard-response","85","80481","0.0-4.0-0.0-1.0-0.21","immediate","trial","27/05/2022","11:17:19","w0gzm0ufe"
"463.80000001192093","80","0.23","50.00","365","reward","1","html-keyboard-response","88","82954","0.0-4.0-0.0-1.0-0.22","immediate","trial","27/05/2022","11:17:19","w0gzm0ufe"
"321.19999998807907","80","4.30","20.00","365","reward","0","html-keyboard-response","91","85286","0.0-4.0-0.0-1.0-0.23","delayed","trial","27/05/2022","11:17:19","w0gzm0ufe"
"367.60000002384186","80","0.18","10.00","90","reward","1","html-keyboard-response","94","87663","0.0-4.0-0.0-1.0-0.24","immediate","trial","27/05/2022","11:17:19","w0gzm0ufe"
"532","80","42.37","50.00","180","reward","1","html-keyboard-response","97","90206","0.0-4.0-0.0-1.0-0.25","immediate","trial","27/05/2022","11:17:19","w0gzm0ufe"
"401.19999998807907","80","46.73","50.00","7","reward","0","html-keyboard-response","100","92614","0.0-4.0-0.0-1.0-0.26","delayed","trial","27/05/2022","11:17:19","w0gzm0ufe"
"545","80","0.05","10.00","365","reward","1","html-keyboard-response","103","95170","0.0-4.0-0.0-1.0-0.27","immediate","trial","27/05/2022","11:17:19","w0gzm0ufe"
"242.80000001192093","80","0.46","50.00","180","reward","0","html-keyboard-response","106","97421","0.0-4.0-0.0-1.0-0.28","delayed","trial","27/05/2022","11:17:19","w0gzm0ufe"
"824.3000000119209","80","0.36","20.00","90","reward","0","html-keyboard-response","109","100253","0.0-4.0-0.0-1.0-0.29","delayed","trial","27/05/2022","11:17:19","w0gzm0ufe"
"383.2999999821186","80","49.91","50.00","180","reward","0","html-keyboard-response","112","102644","0.0-4.0-0.0-1.0-0.30","delayed","trial","27/05/2022","11:17:19","w0gzm0ufe"
"1272.5","80","38.46","50.00","30","reward","0","html-keyboard-response","115","105923","0.0-4.0-0.0-1.0-0.31","delayed","trial","27/05/2022","11:17:19","w0gzm0ufe"
"365.7999999821186","80","49.65","50.00","7","reward","1","html-keyboard-response","118","108296","0.0-4.0-0.0-1.0-0.32","immediate","trial","27/05/2022","11:17:19","w0gzm0ufe"
"320.59999999403954","80","0.09","20.00","365","reward","1","html-keyboard-response","121","110624","0.0-4.0-0.0-1.0-0.33","immediate","trial","27/05/2022","11:17:19","w0gzm0ufe"
"264.40000000596046","80","4.99","5.00","90","reward","0","html-keyboard-response","124","112894","0.0-4.0-0.0-1.0-0.34","delayed","trial","27/05/2022","11:17:19","w0gzm0ufe"
"626.5999999940395","80","1.05","20.00","30","reward","1","html-keyboard-response","127","115528","0.0-4.0-0.0-1.0-0.35","immediate","trial","27/05/2022","11:17:19","w0gzm0ufe"
"493.7000000178814","81","0.09","10.00","180","reward","1","html-keyboard-response","130","118029","0.0-4.0-0.0-1.0-0.36","delayed","trial","27/05/2022","11:17:19","w0gzm0ufe"
"365.19999998807907","80","19.96","20.00","180","reward","1","html-keyboard-response","133","120402","0.0-4.0-0.0-1.0-0.37","immediate","trial","27/05/2022","11:17:19","w0gzm0ufe"
"303.39999997615814","80","9.17","10.00","90","reward","1","html-keyboard-response","136","122714","0.0-4.0-0.0-1.0-0.38","immediate","trial","27/05/2022","11:17:19","w0gzm0ufe"
"404.2999999821186","80","7.33","10.00","365","reward","0","html-keyboard-response","139","125124","0.0-4.0-0.0-1.0-0.39","delayed","trial","27/05/2022","11:17:19","w0gzm0ufe"
"514.5999999940395","80","-9.96","-10.00","365","loss","1","html-keyboard-response","143","127966","0.0-4.0-1.0-1.0-0.0","immediate","trial","27/05/2022","11:17:19","w0gzm0ufe"
"231.90000000596046","80","-4.99","-5.00","30","loss","0","html-keyboard-response","146","130205","0.0-4.0-1.0-1.0-0.1","delayed","trial","27/05/2022","11:17:19","w0gzm0ufe"
"286.69999998807907","80","-26.32","-50.00","90","loss","0","html-keyboard-response","149","132500","0.0-4.0-1.0-1.0-0.2","delayed","trial","27/05/2022","11:17:19","w0gzm0ufe"
"441.7000000178814","81","-9.55","-20.00","1095","loss","1","html-keyboard-response","152","134947","0.0-4.0-1.0-1.0-0.3","delayed","trial","27/05/2022","11:17:19","w0gzm0ufe"
"889.8999999761581","81","-3.66","-5.00","365","loss","0","html-keyboard-response","155","137844","0.0-4.0-1.0-1.0-0.4","immediate","trial","27/05/2022","11:17:19","w0gzm0ufe"
"320.69999998807907","81","-2.39","-5.00","1095","loss","1","html-keyboard-response","158","140171","0.0-4.0-1.0-1.0-0.5","delayed","trial","27/05/2022","11:17:19","w0gzm0ufe"
"314.2000000178814","80","-42.37","-50.00","180","loss","0","html-keyboard-response","161","142495","0.0-4.0-1.0-1.0-0.6","delayed","trial","27/05/2022","11:17:19","w0gzm0ufe"
"330.7999999821186","81","-10.53","-20.00","90","loss","0","html-keyboard-response","164","144832","0.0-4.0-1.0-1.0-0.7","immediate","trial","27/05/2022","11:17:19","w0gzm0ufe"
"749.5","80","-0.05","-10.00","365","loss","0","html-keyboard-response","167","147587","0.0-4.0-1.0-1.0-0.8","delayed","trial","27/05/2022","11:17:19","w0gzm0ufe"
"310.7000000178814","80","-0.53","-10.00","30","loss","1","html-keyboard-response","170","149905","0.0-4.0-1.0-1.0-0.9","immediate","trial","27/05/2022","11:17:19","w0gzm0ufe"
"393.69999998807907","80","-4.59","-5.00","90","loss","0","html-keyboard-response","173","152308","0.0-4.0-1.0-1.0-0.10","delayed","trial","27/05/2022","11:17:19","w0gzm0ufe"
"398.09999999403954","80","-0.09","-10.00","180","loss","1","html-keyboard-response","176","154713","0.0-4.0-1.0-1.0-0.11","immediate","trial","27/05/2022","11:17:19","w0gzm0ufe"
"372.59999999403954","81","-49.82","-50.00","365","loss","0","html-keyboard-response","179","157092","0.0-4.0-1.0-1.0-0.12","immediate","trial","27/05/2022","11:17:19","w0gzm0ufe"
"314.10000002384186","80","-4.99","-5.00","90","loss","0","html-keyboard-response","182","159413","0.0-4.0-1.0-1.0-0.13","delayed","trial","27/05/2022","11:17:19","w0gzm0ufe"
"359.09999999403954","80","-5.26","-10.00","90","loss","0","html-keyboard-response","185","161784","0.0-4.0-1.0-1.0-0.14","delayed","trial","27/05/2022","11:17:19","w0gzm0ufe"
"291.40000000596046","81","-3.85","-5.00","30","loss","0","html-keyboard-response","188","164083","0.0-4.0-1.0-1.0-0.15","immediate","trial","27/05/2022","11:17:19","w0gzm0ufe"
"379.30000001192093","80","-14.65","-20.00","365","loss","1","html-keyboard-response","191","166470","0.0-4.0-1.0-1.0-0.16","immediate","trial","27/05/2022","11:17:19","w0gzm0ufe"
"311","80","-0.42","-5.00","1095","loss","1","html-keyboard-response","194","168791","0.0-4.0-1.0-1.0-0.17","immediate","trial","27/05/2022","11:17:19","w0gzm0ufe"
"263.40000000596046","80","-17.86","-50.00","180","loss","1","html-keyboard-response","197","171065","0.0-4.0-1.0-1.0-0.18","immediate","trial","27/05/2022","11:17:19","w0gzm0ufe"
"1196.699999988079","80","-1.05","-20.00","30","loss","1","html-keyboard-response","200","174269","0.0-4.0-1.0-1.0-0.19","immediate","trial","27/05/2022","11:17:19","w0gzm0ufe"
"439.59999999403954","81","-49.91","-50.00","180","loss","0","html-keyboard-response","203","176717","0.0-4.0-1.0-1.0-0.20","immediate","trial","27/05/2022","11:17:19","w0gzm0ufe"
"263.2999999821186","81","-8.47","-10.00","180","loss","0","html-keyboard-response","206","178988","0.0-4.0-1.0-1.0-0.21","immediate","trial","27/05/2022","11:17:19","w0gzm0ufe"
"351.59999999403954","81","-4.24","-5.00","180","loss","0","html-keyboard-response","209","181351","0.0-4.0-1.0-1.0-0.22","immediate","trial","27/05/2022","11:17:19","w0gzm0ufe"
"339.5","81","-4.99","-5.00","180","loss","1","html-keyboard-response","212","183698","0.0-4.0-1.0-1.0-0.23","delayed","trial","27/05/2022","11:17:19","w0gzm0ufe"
"410.40000000596046","80","-38.46","-50.00","30","loss","0","html-keyboard-response","215","186117","0.0-4.0-1.0-1.0-0.24","delayed","trial","27/05/2022","11:17:19","w0gzm0ufe"
"356","81","-3.57","-10.00","180","loss","0","html-keyboard-response","218","188478","0.0-4.0-1.0-1.0-0.25","immediate","trial","27/05/2022","11:17:19","w0gzm0ufe"
"316.60000002384186","80","-7.14","-20.00","180","loss","1","html-keyboard-response","221","190802","0.0-4.0-1.0-1.0-0.26","immediate","trial","27/05/2022","11:17:19","w0gzm0ufe"
"329.59999999403954","81","-49.46","-50.00","1095","loss","1","html-keyboard-response","224","193140","0.0-4.0-1.0-1.0-0.27","delayed","trial","27/05/2022","11:17:19","w0gzm0ufe"
"265.7999999821186","80","-49.99","-50.00","30","loss","0","html-keyboard-response","227","195412","0.0-4.0-1.0-1.0-0.28","delayed","trial","27/05/2022","11:17:19","w0gzm0ufe"
"795.1000000238419","81","-9.17","-10.00","90","loss","1","html-keyboard-response","230","198219","0.0-4.0-1.0-1.0-0.29","delayed","trial","27/05/2022","11:17:19","w0gzm0ufe"
"325","80","-0.03","-20.00","1095","loss","1","html-keyboard-response","233","200554","0.0-4.0-1.0-1.0-0.30","immediate","trial","27/05/2022","11:17:19","w0gzm0ufe"
"235.09999999403954","81","-0.23","-50.00","365","loss","0","html-keyboard-response","236","202795","0.0-4.0-1.0-1.0-0.31","immediate","trial","27/05/2022","11:17:19","w0gzm0ufe"
"320.09999999403954","81","-0.18","-20.00","180","loss","0","html-keyboard-response","239","205119","0.0-4.0-1.0-1.0-0.32","immediate","trial","27/05/2022","11:17:19","w0gzm0ufe"
"317.90000000596046","81","-0.46","-50.00","180","loss","1","html-keyboard-response","242","207443","0.0-4.0-1.0-1.0-0.33","delayed","trial","27/05/2022","11:17:19","w0gzm0ufe"
"211.39999997615814","81","-0.05","-5.00","180","loss","0","html-keyboard-response","245","209662","0.0-4.0-1.0-1.0-0.34","immediate","trial","27/05/2022","11:17:19","w0gzm0ufe"
"214","81","-0.36","-20.00","90","loss","1","html-keyboard-response","248","211883","0.0-4.0-1.0-1.0-0.35","delayed","trial","27/05/2022","11:17:19","w0gzm0ufe"
"255.2000000178814","81","-2.63","-5.00","90","loss","0","html-keyboard-response","251","214143","0.0-4.0-1.0-1.0-0.36","immediate","trial","27/05/2022","11:17:19","w0gzm0ufe"
"669.3000000119209","80","-16.95","-20.00","180","loss","1","html-keyboard-response","254","216818","0.0-4.0-1.0-1.0-0.37","immediate","trial","27/05/2022","11:17:19","w0gzm0ufe"
"363.7000000178814","81","-4.77","-10.00","1095","loss","0","html-keyboard-response","257","219190","0.0-4.0-1.0-1.0-0.38","immediate","trial","27/05/2022","11:17:19","w0gzm0ufe"
"1551.2000000178814","80","-0.84","-10.00","1095","loss","0","html-keyboard-response","260","222751","0.0-4.0-1.0-1.0-0.39","delayed","trial","27/05/2022","11:17:19","w0gzm0ufe"
"613.8000000119209","81","26.32","50.00","90","reward","1","html-keyboard-response","264","225709","0.0-4.0-2.0-1.0-0.0","delayed","trial","27/05/2022","11:17:19","w0gzm0ufe"
"304","80","3.66","5.00","365","reward","0","html-keyboard-response","267","228022","0.0-4.0-2.0-1.0-0.1","delayed","trial","27/05/2022","11:17:19","w0gzm0ufe"
"1291","81","19.42","20.00","30","reward","1","html-keyboard-response","270","231323","0.0-4.0-2.0-1.0-0.2","delayed","trial","27/05/2022","11:17:19","w0gzm0ufe"
"500","80","49.99","50.00","30","reward","0","html-keyboard-response","273","233827","0.0-4.0-2.0-1.0-0.3","delayed","trial","27/05/2022","11:17:19","w0gzm0ufe"
"324.90000000596046","81","0.96","5.00","7","reward","0","html-keyboard-response","276","236159","0.0-4.0-2.0-1.0-0.4","immediate","trial","27/05/2022","11:17:19","w0gzm0ufe"
"585.7999999821186","80","17.86","50.00","180","reward","0","html-keyboard-response","279","238751","0.0-4.0-2.0-1.0-0.5","delayed","trial","27/05/2022","11:17:19","w0gzm0ufe"
"290.59999999403954","80","1.92","10.00","7","reward","0","html-keyboard-response","282","241047","0.0-4.0-2.0-1.0-0.6","delayed","trial","27/05/2022","11:17:19","w0gzm0ufe"
"569.1999999880791","81","2.63","50.00","30","reward","1","html-keyboard-response","285","243624","0.0-4.0-2.0-1.0-0.7","delayed","trial","27/05/2022","11:17:19","w0gzm0ufe"
"324.60000002384186","81","3.57","10.00","180","reward","1","html-keyboard-response","288","245956","0.0-4.0-2.0-1.0-0.8","delayed","trial","27/05/2022","11:17:19","w0gzm0ufe"
"329.19999998807907","81","2.15","10.00","365","reward","0","html-keyboard-response","291","248291","0.0-4.0-2.0-1.0-0.9","immediate","trial","27/05/2022","11:17:19","w0gzm0ufe"
"314.2999999821186","80","8.47","10.00","180","reward","1","html-keyboard-response","294","250613","0.0-4.0-2.0-1.0-0.10","immediate","trial","27/05/2022","11:17:19","w0gzm0ufe"
"351.80000001192093","81","48.54","50.00","30","reward","1","html-keyboard-response","297","252975","0.0-4.0-2.0-1.0-0.11","delayed","trial","27/05/2022","11:17:19","w0gzm0ufe"
"290.5","80","0.05","5.00","180","reward","0","html-keyboard-response","300","255271","0.0-4.0-2.0-1.0-0.12","delayed","trial","27/05/2022","11:17:19","w0gzm0ufe"
"342.40000000596046","81","19.86","20.00","7","reward","1","html-keyboard-response","303","257622","0.0-4.0-2.0-1.0-0.13","delayed","trial","27/05/2022","11:17:19","w0gzm0ufe"
"276.7000000178814","81","2.63","5.00","90","reward","0","html-keyboard-response","306","259908","0.0-4.0-2.0-1.0-0.14","immediate","trial","27/05/2022","11:17:19","w0gzm0ufe"
"312.7000000178814","80","19.98","20.00","90","reward","0","html-keyboard-response","309","262227","0.0-4.0-2.0-1.0-0.15","delayed","trial","27/05/2022","11:17:19","w0gzm0ufe"
"218.7000000178814","81","18.35","20.00","90","reward","0","html-keyboard-response","312","264453","0.0-4.0-2.0-1.0-0.16","immediate","trial","27/05/2022","11:17:19","w0gzm0ufe"
"324.90000000596046","80","9.71","10.00","30","reward","0","html-keyboard-response","315","266783","0.0-4.0-2.0-1.0-0.17","delayed","trial","27/05/2022","11:17:19","w0gzm0ufe"
"355.19999998807907","81","0.18","20.00","180","reward","0","html-keyboard-response","318","269144","0.0-4.0-2.0-1.0-0.18","immediate","trial","27/05/2022","11:17:19","w0gzm0ufe"
"346.40000000596046","80","0.26","5.00","30","reward","0","html-keyboard-response","321","271498","0.0-4.0-2.0-1.0-0.19","delayed","trial","27/05/2022","11:17:19","w0gzm0ufe"
"827.3999999761581","80","19.99","20.00","7","reward","1","html-keyboard-response","324","274331","0.0-4.0-2.0-1.0-0.20","immediate","trial","27/05/2022","11:17:19","w0gzm0ufe"
"297.90000000596046","80","18.69","20.00","7","reward","1","html-keyboard-response","327","276639","0.0-4.0-2.0-1.0-0.21","immediate","trial","27/05/2022","11:17:19","w0gzm0ufe"
"549.6999999880791","80","0.02","5.00","365","reward","1","html-keyboard-response","330","279194","0.0-4.0-2.0-1.0-0.22","immediate","trial","27/05/2022","11:17:19","w0gzm0ufe"
"340","81","10.53","20.00","90","reward","0","html-keyboard-response","333","281540","0.0-4.0-2.0-1.0-0.23","immediate","trial","27/05/2022","11:17:19","w0gzm0ufe"
"311.2999999821186","80","4.99","5.00","180","reward","0","html-keyboard-response","336","283858","0.0-4.0-2.0-1.0-0.24","delayed","trial","27/05/2022","11:17:19","w0gzm0ufe"
"354.90000000596046","80","0.53","10.00","30","reward","1","html-keyboard-response","339","286223","0.0-4.0-2.0-1.0-0.25","immediate","trial","27/05/2022","11:17:19","w0gzm0ufe"
"426.69999998807907","80","0.91","50.00","90","reward","0","html-keyboard-response","342","288655","0.0-4.0-2.0-1.0-0.26","delayed","trial","27/05/2022","11:17:19","w0gzm0ufe"
"330.5","81","4.24","5.00","180","reward","1","html-keyboard-response","345","290990","0.0-4.0-2.0-1.0-0.27","delayed","trial","27/05/2022","11:17:19","w0gzm0ufe"
"325.7000000178814","80","7.69","10.00","30","reward","0","html-keyboard-response","348","293323","0.0-4.0-2.0-1.0-0.28","delayed","trial","27/05/2022","11:17:19","w0gzm0ufe"
"477.5","80","4.67","5.00","7","reward","0","html-keyboard-response","351","295805","0.0-4.0-2.0-1.0-0.29","delayed","trial","27/05/2022","11:17:19","w0gzm0ufe"
"382.30000001192093","80","1.08","5.00","365","reward","1","html-keyboard-response","354","298195","0.0-4.0-2.0-1.0-0.30","immediate","trial","27/05/2022","11:17:19","w0gzm0ufe"
"361.7999999821186","80","3.85","20.00","7","reward","0","html-keyboard-response","357","300566","0.0-4.0-2.0-1.0-0.31","delayed","trial","27/05/2022","11:17:19","w0gzm0ufe"
"534.2999999821186","80","10.75","50.00","365","reward","0","html-keyboard-response","360","303110","0.0-4.0-2.0-1.0-0.32","delayed","trial","27/05/2022","11:17:19","w0gzm0ufe"
"243.80000001192093","80","49.96","50.00","90","reward","0","html-keyboard-response","363","305363","0.0-4.0-2.0-1.0-0.33","delayed","trial","27/05/2022","11:17:19","w0gzm0ufe"
"507.09999999403954","80","14.65","20.00","365","reward","0","html-keyboard-response","366","307877","0.0-4.0-2.0-1.0-0.34","delayed","trial","27/05/2022","11:17:19","w0gzm0ufe"
"421.80000001192093","81","0.09","5.00","90","reward","0","html-keyboard-response","369","310309","0.0-4.0-2.0-1.0-0.35","immediate","trial","27/05/2022","11:17:19","w0gzm0ufe"
"411.09999999403954","80","9.96","10.00","365","reward","0","html-keyboard-response","372","312726","0.0-4.0-2.0-1.0-0.36","delayed","trial","27/05/2022","11:17:19","w0gzm0ufe"
"564.4000000059605","81","5.26","10.00","90","reward","1","html-keyboard-response","375","315295","0.0-4.0-2.0-1.0-0.37","delayed","trial","27/05/2022","11:17:19","w0gzm0ufe"
"370.09999999403954","80","19.99","20.00","30","reward","1","html-keyboard-response","378","317671","0.0-4.0-2.0-1.0-0.38","immediate","trial","27/05/2022","11:17:19","w0gzm0ufe"
"443","80","4.99","5.00","30","reward","1","html-keyboard-response","381","320122","0.0-4.0-2.0-1.0-0.39","immediate","trial","27/05/2022","11:17:19","w0gzm0ufe"
"521.5","80","-45.87","-50.00","90","loss","1","html-keyboard-response","385","322913","0.0-4.0-3.0-1.0-0.0","immediate","trial","27/05/2022","11:17:19","w0gzm0ufe"
"369","80","-1.08","-5.00","365","loss","0","html-keyboard-response","388","325291","0.0-4.0-3.0-1.0-0.1","delayed","trial","27/05/2022","11:17:19","w0gzm0ufe"
"247.2000000178814","80","-0.01","-5.00","1095","loss","0","html-keyboard-response","391","327548","0.0-4.0-3.0-1.0-0.2","delayed","trial","27/05/2022","11:17:19","w0gzm0ufe"
"300.7999999821186","80","-19.98","-20.00","90","loss","1","html-keyboard-response","394","329860","0.0-4.0-3.0-1.0-0.3","immediate","trial","27/05/2022","11:17:19","w0gzm0ufe"
"1432.300000011921","80","-19.96","-20.00","180","loss","1","html-keyboard-response","397","333300","0.0-4.0-3.0-1.0-0.4","immediate","trial","27/05/2022","11:17:19","w0gzm0ufe"
"330.5","80","-2.15","-10.00","365","loss","0","html-keyboard-response","400","335637","0.0-4.0-3.0-1.0-0.5","delayed","trial","27/05/2022","11:17:19","w0gzm0ufe"
"322.59999999403954","80","-4.98","-5.00","365","loss","1","html-keyboard-response","403","337965","0.0-4.0-3.0-1.0-0.6","immediate","trial","27/05/2022","11:17:19","w0gzm0ufe"
"649.5","80","-4.18","-50.00","1095","loss","1","html-keyboard-response","406","340623","0.0-4.0-3.0-1.0-0.7","immediate","trial","27/05/2022","11:17:19","w0gzm0ufe"
"344.5","81","-9.89","-10.00","1095","loss","1","html-keyboard-response","409","342973","0.0-4.0-3.0-1.0-0.8","delayed","trial","27/05/2022","11:17:19","w0gzm0ufe"
"516.5","80","-19.78","-20.00","1095","loss","0","html-keyboard-response","412","345497","0.0-4.0-3.0-1.0-0.9","delayed","trial","27/05/2022","11:17:19","w0gzm0ufe"
"286.2999999821186","81","-1.79","-5.00","180","loss","1","html-keyboard-response","415","347790","0.0-4.0-3.0-1.0-0.10","delayed","trial","27/05/2022","11:17:19","w0gzm0ufe"
"287.09999999403954","80","-36.63","-50.00","365","loss","1","html-keyboard-response","418","350083","0.0-4.0-3.0-1.0-0.11","immediate","trial","27/05/2022","11:17:19","w0gzm0ufe"
"246.5","81","-19.93","-20.00","365","loss","1","html-keyboard-response","421","352337","0.0-4.0-3.0-1.0-0.12","delayed","trial","27/05/2022","11:17:19","w0gzm0ufe"
"405.90000000596046","80","-0.91","-50.00","90","loss","1","html-keyboard-response","424","354752","0.0-4.0-3.0-1.0-0.13","immediate","trial","27/05/2022","11:17:19","w0gzm0ufe"
"403.59999999403954","80","-4.95","-5.00","1095","loss","1","html-keyboard-response","427","357166","0.0-4.0-3.0-1.0-0.14","immediate","trial","27/05/2022","11:17:19","w0gzm0ufe"
"432.19999998807907","80","-7.69","-10.00","30","loss","1","html-keyboard-response","430","359605","0.0-4.0-3.0-1.0-0.15","immediate","trial","27/05/2022","11:17:19","w0gzm0ufe"
"331.19999998807907","80","-2.63","-50.00","30","loss","1","html-keyboard-response","433","361941","0.0-4.0-3.0-1.0-0.16","immediate","trial","27/05/2022","11:17:19","w0gzm0ufe"
"212.10000002384186","80","-4.30","-20.00","365","loss","0","html-keyboard-response","436","364164","0.0-4.0-3.0-1.0-0.17","delayed","trial","27/05/2022","11:17:19","w0gzm0ufe"
"320.2999999821186","80","-19.99","-20.00","30","loss","0","html-keyboard-response","439","366490","0.0-4.0-3.0-1.0-0.18","delayed","trial","27/05/2022","11:17:19","w0gzm0ufe"
"336.19999998807907","80","-49.96","-50.00","90","loss","1","html-keyboard-response","442","368832","0.0-4.0-3.0-1.0-0.19","immediate","trial","27/05/2022","11:17:19","w0gzm0ufe"
"511.19999998807907","81","-48.54","-50.00","30","loss","1","html-keyboard-response","445","371348","0.0-4.0-3.0-1.0-0.20","delayed","trial","27/05/2022","11:17:19","w0gzm0ufe"
"365.2999999821186","80","-0.02","-10.00","1095","loss","1","html-keyboard-response","448","373719","0.0-4.0-3.0-1.0-0.21","immediate","trial","27/05/2022","11:17:19","w0gzm0ufe"
"503.89999997615814","80","-0.09","-5.00","90","loss","1","html-keyboard-response","451","376231","0.0-4.0-3.0-1.0-0.22","immediate","trial","27/05/2022","11:17:19","w0gzm0ufe"
"531.7000000178814","80","-0.26","-5.00","30","loss","0","html-keyboard-response","454","378771","0.0-4.0-3.0-1.0-0.23","delayed","trial","27/05/2022","11:17:19","w0gzm0ufe"
"442.7999999821186","81","-4.85","-5.00","30","loss","0","html-keyboard-response","457","381221","0.0-4.0-3.0-1.0-0.24","immediate","trial","27/05/2022","11:17:19","w0gzm0ufe"
"992.6999999880791","80","-9.98","-10.00","180","loss","0","html-keyboard-response","460","384219","0.0-4.0-3.0-1.0-0.25","delayed","trial","27/05/2022","11:17:19","w0gzm0ufe"
"354.30000001192093","80","-10.75","-50.00","365","loss","0","html-keyboard-response","463","386578","0.0-4.0-3.0-1.0-0.26","delayed","trial","27/05/2022","11:17:19","w0gzm0ufe"
"442.89999997615814","81","-19.42","-20.00","30","loss","1","html-keyboard-response","466","389029","0.0-4.0-3.0-1.0-0.27","delayed","trial","27/05/2022","11:17:19","w0gzm0ufe"
"752.4000000059605","81","-0.08","-50.00","1095","loss","1","html-keyboard-response","469","391792","0.0-4.0-3.0-1.0-0.28","delayed","trial","27/05/2022","11:17:19","w0gzm0ufe"
"390.2000000178814","80","-15.38","-20.00","30","loss","1","html-keyboard-response","472","394187","0.0-4.0-3.0-1.0-0.29","immediate","trial","27/05/2022","11:17:19","w0gzm0ufe"
"279.30000001192093","81","-0.02","-5.00","365","loss","0","html-keyboard-response","475","396476","0.0-4.0-3.0-1.0-0.30","immediate","trial","27/05/2022","11:17:19","w0gzm0ufe"
"268.10000002384186","80","-18.35","-20.00","90","loss","1","html-keyboard-response","478","398749","0.0-4.0-3.0-1.0-0.31","immediate","trial","27/05/2022","11:17:19","w0gzm0ufe"
"229.69999998807907","80","-23.87","-50.00","1095","loss","0","html-keyboard-response","481","400986","0.0-4.0-3.0-1.0-0.32","delayed","trial","27/05/2022","11:17:19","w0gzm0ufe"
"421.5","80","-0.18","-10.00","90","loss","1","html-keyboard-response","484","403418","0.0-4.0-3.0-1.0-0.33","immediate","trial","27/05/2022","11:17:19","w0gzm0ufe"
"816.3000000119209","81","-1.67","-20.00","1095","loss","0","html-keyboard-response","487","406240","0.0-4.0-3.0-1.0-0.34","immediate","trial","27/05/2022","11:17:19","w0gzm0ufe"
"316.2999999821186","80","-9.99","-10.00","30","loss","0","html-keyboard-response","490","408563","0.0-4.0-3.0-1.0-0.35","delayed","trial","27/05/2022","11:17:19","w0gzm0ufe"
"336.7999999821186","81","-9.71","-10.00","30","loss","0","html-keyboard-response","493","410907","0.0-4.0-3.0-1.0-0.36","immediate","trial","27/05/2022","11:17:19","w0gzm0ufe"
"291.7000000178814","80","-9.99","-10.00","90","loss","1","html-keyboard-response","496","413203","0.0-4.0-3.0-1.0-0.37","immediate","trial","27/05/2022","11:17:19","w0gzm0ufe"
"330.7999999821186","80","-7.33","-10.00","365","loss","0","html-keyboard-response","499","415541","0.0-4.0-3.0-1.0-0.38","delayed","trial","27/05/2022","11:17:19","w0gzm0ufe"
"350.59999999403954","80","-0.09","-20.00","365","loss","1","html-keyboard-response","502","417897","0.0-4.0-3.0-1.0-0.39","immediate","trial","27/05/2022","11:17:19","w0gzm0ufe"
